session_code; participant_code; participant_label       ; participant_id_in_session; round_number; lottery_id   ; lottery_stake; lottery_name ; selected_lottery_name; selected_round; selected_option; selected_choice; selected_amount; cutoff_index; cutoff_amount; fine_cutoff_index; fine_cutoff_amount; fine_selected_choice; fine_selected_amount; num_failed_attempts; failed_too_many_1; failed_too_many_2; failed_too_many_3; quiz1; quiz2; quiz3; quiz4; quiz5; quiz6                 ; quiz6t; quiz7                                               ; quiz8                                                                       ; participant_time_started_utc; session2_start; session2_start_readable  ; session3_start; session3_start_readable  ; realized_period1_label; realized_period1_probability; realized_period1_abs_prob; realized_period2_label; realized_period2_probability; realized_period2_abs_prob; realized_period3_label; realized_period3_probability; realized_period3_abs_prob; final_outcome_label; final_payoff; treatment_group; treatment_die_roll; treatment_tree_version; treatment_offer; treatment_reported_value; treatment_last_stay_value; treatment_first_accept_value; treatment_offer_accepted; chf_1       ; chf_2       ; chf_3       ; chf_4       ; chf_5       ; chf_6       ; chf_7       ; chf_8       ; chf_9       ; chf_10      ; chf_11      ; chf_12      ; chf_13      ; chf_14      ; chf_15      ; chf_16      ; chf_17      ; chf_18      ; chf_19      ; chf_20
i2g9x805    ; 24vadpmm        ; 5f39a2fd2d394917284dd66f;                         1;            1; cali_loss_de ; lo           ; cali_loss_de ; Lottery 7            ;             10; Safe option    ;              12; -30            ;           11; -33          ;                  ;                   ;                     ;                     ;                   1;                 0;                 0;                 0; Yes  ; No   ; Yes  ; Yes  ; No   ;                       ;       ;                                                     ;                                                                             ; 2026-04-30 08:30:14.335261  ;     1777788000; Sunday, 3 May at 06:00   ;     1778047200; Wednesday, 6 May at 06:00; -£315                 ;                          0.6;                       0.6; -£695                 ;                            1;                       0.6; -£400                 ;                          0.8;                      0.48; -£400              ; -1599       ;               0;                   ;                       ;                ;                         ;                          ;                             ;                         ; Risky option; Risky option; Risky option; Risky option; Risky option; Risky option; Risky option; Risky option; Risky option; Risky option; Risky option; Safe option ; Safe option ; Safe option ; Safe option ; Safe option ; Safe option ; Safe option ; Safe option ; Safe option
i2g9x805    ; 24vadpmm        ; 5f39a2fd2d394917284dd66f;                         1;            2; cali_mix_pres; hi           ; cali_mix_pres; Lottery 7            ;             10; Safe option    ;              16; 532            ;           15; 489          ;                 2; 503               ;                    3; 511                 ;                   0;                 0;                 0;                 0;      ;      ;      ;      ;      ;                       ;       ;                                                     ;                                                                             ; 2026-04-30 08:30:14.335261  ;     1777788000; Sunday, 3 May at 06:00   ;     1778047200; Wednesday, 6 May at 06:00; -£315                 ;                          0.6;                       0.6; -£695                 ;                            1;                       0.6; -£400                 ;                          0.8;                      0.48; -£400              ; -1599       ;               0;                   ;                       ;                ;                         ;                          ;                             ;                         ; Risky option; Risky option; Risky option; Risky option; Risky option; Risky option; Risky option; Risky option; Risky option; Risky option; Risky option; Risky option; Risky option; Risky option; Risky option; Safe option ; Safe option ; Safe option ; Safe option ; Safe option
i2g9x805    ; 24vadpmm        ; 5f39a2fd2d394917284dd66f;                         1;            3; cali_loss_st ; lo           ; cali_loss_st ; Lottery 7            ;             10; Safe option    ;              13; -27            ;           12; -30          ;                  ;                   ;                     ;                     ;                   0;                 0;                 0;                 0;      ;      ;      ;      ;      ;                       ;       ;                                                     ;                                                                             ; 2026-04-30 08:30:14.335261  ;     1777788000; Sunday, 3 May at 06:00   ;     1778047200; Wednesday, 6 May at 06:00; -£315                 ;                          0.6;                       0.6; -£695                 ;                            1;                       0.6; -£400                 ;                          0.8;                      0.48; -£400              ; -1599       ;               0;                   ;                       ;                ;                         ;                          ;                             ;                         ; Risky option; Risky option; Risky option; Risky option; Risky option; Risky option; Risky option; Risky option; Risky option; Risky option; Risky option; Risky option; Safe option ; Safe option ; Safe option ; Safe option ; Safe option ; Safe option ; Safe option ; Safe option
i2g9x805    ; 24vadpmm        ; 5f39a2fd2d394917284dd66f;                         1;            4; cali_mix     ; hi           ; cali_mix     ; Lottery 7            ;             10; Safe option    ;              15; 489            ;           14; 447          ;                 3; 468               ;                    4; 475                 ;                   0;                 0;                 0;                 0;      ;      ;      ;      ;      ;                       ;       ;                                                     ;                                                                             ; 2026-04-30 08:30:14.335261  ;     1777788000; Sunday, 3 May at 06:00   ;     1778047200; Wednesday, 6 May at 06:00; -£315                 ;                          0.6;                       0.6; -£695                 ;                            1;                       0.6; -£400                 ;                          0.8;                      0.48; -£400              ; -1599       ;               0;                   ;                       ;                ;                         ;                          ;                             ;                         ; Risky option; Risky option; Risky option; Risky option; Risky option; Risky option; Risky option; Risky option; Risky option; Risky option; Risky option; Risky option; Risky option; Risky option; Safe option ; Safe option ; Safe option ; Safe option ; Safe option ; Safe option
i2g9x805    ; 24vadpmm        ; 5f39a2fd2d394917284dd66f;                         1;            5; cali_gain    ; lo           ; cali_gain    ; Lottery 7            ;             10; Safe option    ;              12; 28             ;           11; 27           ;                  ;                   ;                     ;                     ;                   0;                 0;                 0;                 0;      ;      ;      ;      ;      ;                       ;       ;                                                     ;                                                                             ; 2026-04-30 08:30:14.335261  ;     1777788000; Sunday, 3 May at 06:00   ;     1778047200; Wednesday, 6 May at 06:00; -£315                 ;                          0.6;                       0.6; -£695                 ;                            1;                       0.6; -£400                 ;                          0.8;                      0.48; -£400              ; -1599       ;               0;                   ;                       ;                ;                         ;                          ;                             ;                         ; Risky option; Risky option; Risky option; Risky option; Risky option; Risky option; Risky option; Risky option; Risky option; Risky option; Risky option; Safe option ; Safe option ; Safe option ; Safe option ; Safe option ; Safe option ; Safe option ; Safe option ; Safe option
i2g9x805    ; 24vadpmm        ; 5f39a2fd2d394917284dd66f;                         1;            6; cali_gain_st ; lo           ; cali_gain_st ; Lottery 7            ;             10; Safe option    ;              13; 30             ;           12; 28           ;                  ;                   ;                     ;                     ;                   0;                 0;                 0;                 0;      ;      ;      ;      ;      ;                       ;       ;                                                     ;                                                                             ; 2026-04-30 08:30:14.335261  ;     1777788000; Sunday, 3 May at 06:00   ;     1778047200; Wednesday, 6 May at 06:00; -£315                 ;                          0.6;                       0.6; -£695                 ;                            1;                       0.6; -£400                 ;                          0.8;                      0.48; -£400              ; -1599       ;               0;                   ;                       ;                ;                         ;                          ;                             ;                         ; Risky option; Risky option; Risky option; Risky option; Risky option; Risky option; Risky option; Risky option; Risky option; Risky option; Risky option; Risky option; Safe option ; Safe option ; Safe option ; Safe option ; Safe option ; Safe option ; Safe option ; Safe option
i2g9x805    ; 24vadpmm        ; 5f39a2fd2d394917284dd66f;                         1;            7; cali_loss    ; lo           ; cali_loss    ; Lottery 7            ;             10; Safe option    ;              12; -30            ;           11; -33          ;                  ;                   ;                     ;                     ;                   0;                 0;                 0;                 0;      ;      ;      ;      ;      ;                       ;       ;                                                     ;                                                                             ; 2026-04-30 08:30:14.335261  ;     1777788000; Sunday, 3 May at 06:00   ;     1778047200; Wednesday, 6 May at 06:00; -£315                 ;                          0.6;                       0.6; -£695                 ;                            1;                       0.6; -£400                 ;                          0.8;                      0.48; -£400              ; -1599       ;               0;                   ;                       ;                ;                         ;                          ;                             ;                         ; Risky option; Risky option; Risky option; Risky option; Risky option; Risky option; Risky option; Risky option; Risky option; Risky option; Risky option; Safe option ; Safe option ; Safe option ; Safe option ; Safe option ; Safe option ; Safe option ; Safe option ; Safe option
i2g9x805    ; 24vadpmm        ; 5f39a2fd2d394917284dd66f;                         1;            8; cali_gain_de ; lo           ; cali_gain_de ; Lottery 7            ;             10; Safe option    ;              10; 25             ;            9; 24           ;                  ;                   ;                     ;                     ;                   0;                 0;                 0;                 0;      ;      ;      ;      ;      ;                       ;       ;                                                     ;                                                                             ; 2026-04-30 08:30:14.335261  ;     1777788000; Sunday, 3 May at 06:00   ;     1778047200; Wednesday, 6 May at 06:00; -£315                 ;                          0.6;                       0.6; -£695                 ;                            1;                       0.6; -£400                 ;                          0.8;                      0.48; -£400              ; -1599       ;               0;                   ;                       ;                ;                         ;                          ;                             ;                         ; Risky option; Risky option; Risky option; Risky option; Risky option; Risky option; Risky option; Risky option; Risky option; Safe option ; Safe option ; Safe option ; Safe option ; Safe option ; Safe option ; Safe option ; Safe option ; Safe option ; Safe option ; Safe option
i2g9x805    ; 24vadpmm        ; 5f39a2fd2d394917284dd66f;                         1;            9; lottery_4    ; lo           ; Lottery 4    ; Lottery 7            ;             10; Safe option    ;              16; -38            ;           15; -41          ;                  ;                   ;                     ;                     ;                   0;                 0;                 0;                 0;      ;      ;      ;      ;      ;                       ;       ;                                                     ;                                                                             ; 2026-04-30 08:30:14.335261  ;     1777788000; Sunday, 3 May at 06:00   ;     1778047200; Wednesday, 6 May at 06:00; -£315                 ;                          0.6;                       0.6; -£695                 ;                            1;                       0.6; -£400                 ;                          0.8;                      0.48; -£400              ; -1599       ;               0;                   ;                       ;                ;                         ;                          ;                             ;                         ; Risky option; Risky option; Risky option; Risky option; Risky option; Risky option; Risky option; Risky option; Risky option; Risky option; Risky option; Risky option; Risky option; Risky option; Risky option; Safe option ; Safe option ; Safe option ; Safe option ; Safe option
i2g9x805    ; 24vadpmm        ; 5f39a2fd2d394917284dd66f;                         1;           10; lottery_7    ; hi           ; Lottery 7    ; Lottery 7            ;             10; Safe option    ;              14; -1599          ;           13; -1631        ;                 2; -1620             ;                    3; -1615               ;                   0;                 0;                 0;                 0;      ;      ;      ;      ;      ;                       ;       ;                                                     ;                                                                             ; 2026-04-30 08:30:14.335261  ;     1777788000; Sunday, 3 May at 06:00   ;     1778047200; Wednesday, 6 May at 06:00; -£315                 ;                          0.6;                       0.6; -£695                 ;                            1;                       0.6; -£400                 ;                          0.8;                      0.48; -£400              ; -1599       ;               0;                   ;                       ;                ;                         ;                          ;                             ;                         ; Risky option; Risky option; Risky option; Risky option; Risky option; Risky option; Risky option; Risky option; Risky option; Risky option; Risky option; Risky option; Risky option; Safe option ; Safe option ; Safe option ; Safe option ; Safe option ; Safe option ; Safe option
i2g9x805    ; 24vadpmm        ; 5f39a2fd2d394917284dd66f;                         1;           11; lottery_8    ; hi           ; Lottery 8    ; Lottery 7            ;             10; Safe option    ;              12; 426            ;           11; 339          ;                 4; 397               ;                    5; 412                 ;                   0;                 0;                 0;                 0;      ;      ;      ;      ;      ;                       ;       ;                                                     ;                                                                             ; 2026-04-30 08:30:14.335261  ;     1777788000; Sunday, 3 May at 06:00   ;     1778047200; Wednesday, 6 May at 06:00; -£315                 ;                          0.6;                       0.6; -£695                 ;                            1;                       0.6; -£400                 ;                          0.8;                      0.48; -£400              ; -1599       ;               0;                   ;                       ;                ;                         ;                          ;                             ;                         ; Risky option; Risky option; Risky option; Risky option; Risky option; Risky option; Risky option; Risky option; Risky option; Risky option; Risky option; Safe option ; Safe option ; Safe option ; Safe option ; Safe option ; Safe option ; Safe option ; Safe option ; Safe option
i2g9x805    ; 24vadpmm        ; 5f39a2fd2d394917284dd66f;                         1;           12; lottery_2    ; hi           ; Lottery 2    ; Lottery 7            ;             10; Safe option    ;               9; 1857           ;            8; 1830         ;                 2; 1839              ;                    3; 1844                ;                   0;                 0;                 0;                 0;      ;      ;      ;      ;      ;                       ;       ;                                                     ;                                                                             ; 2026-04-30 08:30:14.335261  ;     1777788000; Sunday, 3 May at 06:00   ;     1778047200; Wednesday, 6 May at 06:00; -£315                 ;                          0.6;                       0.6; -£695                 ;                            1;                       0.6; -£400                 ;                          0.8;                      0.48; -£400              ; -1599       ;               0;                   ;                       ;                ;                         ;                          ;                             ;                         ; Risky option; Risky option; Risky option; Risky option; Risky option; Risky option; Risky option; Risky option; Safe option ; Safe option ; Safe option ; Safe option ; Safe option ; Safe option ; Safe option ; Safe option ; Safe option ; Safe option ; Safe option ; Safe option
i2g9x805    ; 24vadpmm        ; 5f39a2fd2d394917284dd66f;                         1;           13; lottery_5    ; lo           ; Lottery 5    ; Lottery 7            ;             10; Safe option    ;              16; -74            ;           15; -76          ;                  ;                   ;                     ;                     ;                   0;                 0;                 0;                 0;      ;      ;      ;      ;      ;                       ;       ;                                                     ;                                                                             ; 2026-04-30 08:30:14.335261  ;     1777788000; Sunday, 3 May at 06:00   ;     1778047200; Wednesday, 6 May at 06:00; -£315                 ;                          0.6;                       0.6; -£695                 ;                            1;                       0.6; -£400                 ;                          0.8;                      0.48; -£400              ; -1599       ;               0;                   ;                       ;                ;                         ;                          ;                             ;                         ; Risky option; Risky option; Risky option; Risky option; Risky option; Risky option; Risky option; Risky option; Risky option; Risky option; Risky option; Risky option; Risky option; Risky option; Risky option; Safe option ; Safe option ; Safe option ; Safe option ; Safe option
i2g9x805    ; 24vadpmm        ; 5f39a2fd2d394917284dd66f;                         1;           14; lottery_6    ; lo           ; Lottery 6    ; Lottery 7            ;             10; Safe option    ;              15; 26             ;           14; 19           ;                  ;                   ;                     ;                     ;                   0;                 0;                 0;                 0;      ;      ;      ;      ;      ;                       ;       ;                                                     ;                                                                             ; 2026-04-30 08:30:14.335261  ;     1777788000; Sunday, 3 May at 06:00   ;     1778047200; Wednesday, 6 May at 06:00; -£315                 ;                          0.6;                       0.6; -£695                 ;                            1;                       0.6; -£400                 ;                          0.8;                      0.48; -£400              ; -1599       ;               0;                   ;                       ;                ;                         ;                          ;                             ;                         ; Risky option; Risky option; Risky option; Risky option; Risky option; Risky option; Risky option; Risky option; Risky option; Risky option; Risky option; Risky option; Risky option; Risky option; Safe option ; Safe option ; Safe option ; Safe option ; Safe option ; Safe option
i2g9x805    ; 24vadpmm        ; 5f39a2fd2d394917284dd66f;                         1;           15; lottery_3    ; lo           ; Lottery 3    ; Lottery 7            ;             10; Safe option    ;               7; 15             ;            6; 14           ;                  ;                   ;                     ;                     ;                   0;                 0;                 0;                 0;      ;      ;      ;      ;      ;                       ;       ;                                                     ;                                                                             ; 2026-04-30 08:30:14.335261  ;     1777788000; Sunday, 3 May at 06:00   ;     1778047200; Wednesday, 6 May at 06:00; -£315                 ;                          0.6;                       0.6; -£695                 ;                            1;                       0.6; -£400                 ;                          0.8;                      0.48; -£400              ; -1599       ;               0;                   ;                       ;                ;                         ;                          ;                             ;                         ; Risky option; Risky option; Risky option; Risky option; Risky option; Risky option; Safe option ; Safe option ; Safe option ; Safe option ; Safe option ; Safe option ; Safe option ; Safe option ;             ;             ;             ;             ;             ; 
i2g9x805    ; 24vadpmm        ; 5f39a2fd2d394917284dd66f;                         1;           16; lottery_1    ; lo           ; lottery_1    ; Lottery 7            ;             10; Safe option    ;               5; 15             ;            4; 14           ;                  ;                   ;                     ;                     ;                   0;                 0;                 0;                 0;      ;      ;      ;      ;      ;                       ;       ;                                                     ;                                                                             ; 2026-04-30 08:30:14.335261  ;     1777788000; Sunday, 3 May at 06:00   ;     1778047200; Wednesday, 6 May at 06:00; -£315                 ;                          0.6;                       0.6; -£695                 ;                            1;                       0.6; -£400                 ;                          0.8;                      0.48; -£400              ; -1599       ;               0;                   ;                       ;                ;                         ;                          ;                             ;                         ; Risky option; Risky option; Risky option; Risky option; Safe option ; Safe option ; Safe option ; Safe option ; Safe option ;             ;             ;             ;             ;             ;             ;             ;             ;             ;             ; 
i2g9x805    ; 24vadpmm        ; 5f39a2fd2d394917284dd66f;                         1;           17; lottery_7    ; hi           ; Lottery 7    ; Lottery 7            ;             10; Safe option    ;              17; -1190          ;           16; -1221        ;                 2; -1211             ;                    3; -1206               ;                   0;                 0;                 0;                 0;      ;      ;      ;      ;      ;                       ;       ;                                                     ;                                                                             ; 2026-04-30 08:30:14.335261  ;     1777788000; Sunday, 3 May at 06:00   ;     1778047200; Wednesday, 6 May at 06:00; -£315                 ;                          0.6;                       0.6; -£695                 ;                            1;                       0.6; -£400                 ;                          0.8;                      0.48; -£400              ; -1599       ;               0;                   ;                       ;                ;                         ;                          ;                             ;                         ; Risky option; Risky option; Risky option; Risky option; Risky option; Risky option; Risky option; Risky option; Risky option; Risky option; Risky option; Risky option; Risky option; Risky option; Risky option; Risky option; Safe option ; Safe option ; Safe option ; Safe option
i2g9x805    ; 24vadpmm        ; 5f39a2fd2d394917284dd66f;                         1;           18; lottery_7    ; hi           ; Lottery 7    ; Lottery 7            ;             10; Safe option    ;              14; -589           ;           13; -621         ;                 3; -605              ;                    4; -600                ;                   0;                 0;                 0;                 0;      ;      ;      ;      ;      ; Not complicated at all;       ; I paid attention throughout the entire study.       ; Bachelor's degree or equivalent (e.g., BA, BSc, HND, HNC, foundation degree); 2026-04-30 08:30:14.335261  ;     1777788000; Sunday, 3 May at 06:00   ;     1778047200; Wednesday, 6 May at 06:00; -£315                 ;                          0.6;                       0.6; -£695                 ;                            1;                       0.6; -£400                 ;                          0.8;                      0.48; -£400              ; -1599       ;               0;                   ;                       ;                ;                         ;                          ;                             ;                         ; Risky option; Risky option; Risky option; Risky option; Risky option; Risky option; Risky option; Risky option; Risky option; Risky option; Risky option; Risky option; Risky option; Safe option ; Safe option ; Safe option ; Safe option ; Safe option ; Safe option ; Safe option
i2g9x805    ; ktpddedo        ; 665c302327136dcdb0c4a2e0;                         2;            1; cali_loss_de ; lo           ; cali_loss_de ; Lottery 2            ;             12; Safe option    ;              14; -24            ;           13; -27          ;                  ;                   ;                     ;                     ;                   0;                 0;                 0;                 0; Yes  ; No   ; Yes  ; Yes  ; No   ;                       ;       ;                                                     ;                                                                             ; 2026-04-30 08:30:17.497357  ;     1777788000; Sunday, 3 May at 06:00   ;     1778047200; Wednesday, 6 May at 06:00; +£675                 ;                          0.4;                       0.4; +£140                 ;                            1;                       0.4; +£825                 ;                          0.9;                      0.36; +£825              ; 1911        ;               0;                   ;                       ;                ;                         ;                          ;                             ;                         ; Risky option; Risky option; Risky option; Risky option; Risky option; Risky option; Risky option; Risky option; Risky option; Risky option; Risky option; Risky option; Risky option; Safe option ; Safe option ; Safe option ; Safe option ; Safe option ; Safe option ; Safe option
i2g9x805    ; ktpddedo        ; 665c302327136dcdb0c4a2e0;                         2;            2; cali_mix     ; hi           ; cali_mix     ; Lottery 2            ;             12; Safe option    ;              10; 279            ;            9; 237          ;                 0; 237               ;                    1; 244                 ;                   0;                 0;                 0;                 0;      ;      ;      ;      ;      ;                       ;       ;                                                     ;                                                                             ; 2026-04-30 08:30:17.497357  ;     1777788000; Sunday, 3 May at 06:00   ;     1778047200; Wednesday, 6 May at 06:00; +£675                 ;                          0.4;                       0.4; +£140                 ;                            1;                       0.4; +£825                 ;                          0.9;                      0.36; +£825              ; 1911        ;               0;                   ;                       ;                ;                         ;                          ;                             ;                         ; Risky option; Risky option; Risky option; Risky option; Risky option; Risky option; Risky option; Risky option; Risky option; Safe option ; Safe option ; Safe option ; Safe option ; Safe option ; Safe option ; Safe option ; Safe option ; Safe option ; Safe option ; Safe option
i2g9x805    ; ktpddedo        ; 665c302327136dcdb0c4a2e0;                         2;            3; cali_loss    ; lo           ; cali_loss    ; Lottery 2            ;             12; Safe option    ;              20; -8             ;           19; -11          ;                  ;                   ;                     ;                     ;                   0;                 0;                 0;                 0;      ;      ;      ;      ;      ;                       ;       ;                                                     ;                                                                             ; 2026-04-30 08:30:17.497357  ;     1777788000; Sunday, 3 May at 06:00   ;     1778047200; Wednesday, 6 May at 06:00; +£675                 ;                          0.4;                       0.4; +£140                 ;                            1;                       0.4; +£825                 ;                          0.9;                      0.36; +£825              ; 1911        ;               0;                   ;                       ;                ;                         ;                          ;                             ;                         ; Risky option; Risky option; Risky option; Risky option; Risky option; Risky option; Risky option; Risky option; Risky option; Risky option; Risky option; Risky option; Risky option; Risky option; Risky option; Risky option; Risky option; Risky option; Risky option; Safe option
i2g9x805    ; ktpddedo        ; 665c302327136dcdb0c4a2e0;                         2;            4; cali_gain_de ; lo           ; cali_gain_de ; Lottery 2            ;             12; Safe option    ;               7; 21             ;            6; 19           ;                  ;                   ;                     ;                     ;                   0;                 0;                 0;                 0;      ;      ;      ;      ;      ;                       ;       ;                                                     ;                                                                             ; 2026-04-30 08:30:17.497357  ;     1777788000; Sunday, 3 May at 06:00   ;     1778047200; Wednesday, 6 May at 06:00; +£675                 ;                          0.4;                       0.4; +£140                 ;                            1;                       0.4; +£825                 ;                          0.9;                      0.36; +£825              ; 1911        ;               0;                   ;                       ;                ;                         ;                          ;                             ;                         ; Risky option; Risky option; Risky option; Risky option; Risky option; Risky option; Safe option ; Safe option ; Safe option ; Safe option ; Safe option ; Safe option ; Safe option ; Safe option ; Safe option ; Safe option ; Safe option ; Safe option ; Safe option ; Safe option
i2g9x805    ; ktpddedo        ; 665c302327136dcdb0c4a2e0;                         2;            5; cali_gain_st ; lo           ; cali_gain_st ; Lottery 2            ;             12; Safe option    ;               7; 21             ;            6; 19           ;                  ;                   ;                     ;                     ;                   0;                 0;                 0;                 0;      ;      ;      ;      ;      ;                       ;       ;                                                     ;                                                                             ; 2026-04-30 08:30:17.497357  ;     1777788000; Sunday, 3 May at 06:00   ;     1778047200; Wednesday, 6 May at 06:00; +£675                 ;                          0.4;                       0.4; +£140                 ;                            1;                       0.4; +£825                 ;                          0.9;                      0.36; +£825              ; 1911        ;               0;                   ;                       ;                ;                         ;                          ;                             ;                         ; Risky option; Risky option; Risky option; Risky option; Risky option; Risky option; Safe option ; Safe option ; Safe option ; Safe option ; Safe option ; Safe option ; Safe option ; Safe option ; Safe option ; Safe option ; Safe option ; Safe option ; Safe option ; Safe option
i2g9x805    ; ktpddedo        ; 665c302327136dcdb0c4a2e0;                         2;            6; cali_loss_st ; lo           ; cali_loss_st ; Lottery 2            ;             12; Safe option    ;              20; -8             ;           19; -11          ;                  ;                   ;                     ;                     ;                   0;                 0;                 0;                 0;      ;      ;      ;      ;      ;                       ;       ;                                                     ;                                                                             ; 2026-04-30 08:30:17.497357  ;     1777788000; Sunday, 3 May at 06:00   ;     1778047200; Wednesday, 6 May at 06:00; +£675                 ;                          0.4;                       0.4; +£140                 ;                            1;                       0.4; +£825                 ;                          0.9;                      0.36; +£825              ; 1911        ;               0;                   ;                       ;                ;                         ;                          ;                             ;                         ; Risky option; Risky option; Risky option; Risky option; Risky option; Risky option; Risky option; Risky option; Risky option; Risky option; Risky option; Risky option; Risky option; Risky option; Risky option; Risky option; Risky option; Risky option; Risky option; Safe option
i2g9x805    ; ktpddedo        ; 665c302327136dcdb0c4a2e0;                         2;            7; cali_mix_pres; hi           ; cali_mix_pres; Lottery 2            ;             12; Safe option    ;              12; 363            ;           11; 321          ;                 2; 335               ;                    3; 342                 ;                   0;                 0;                 0;                 0;      ;      ;      ;      ;      ;                       ;       ;                                                     ;                                                                             ; 2026-04-30 08:30:17.497357  ;     1777788000; Sunday, 3 May at 06:00   ;     1778047200; Wednesday, 6 May at 06:00; +£675                 ;                          0.4;                       0.4; +£140                 ;                            1;                       0.4; +£825                 ;                          0.9;                      0.36; +£825              ; 1911        ;               0;                   ;                       ;                ;                         ;                          ;                             ;                         ; Risky option; Risky option; Risky option; Risky option; Risky option; Risky option; Risky option; Risky option; Risky option; Risky option; Risky option; Safe option ; Safe option ; Safe option ; Safe option ; Safe option ; Safe option ; Safe option ; Safe option ; Safe option
i2g9x805    ; ktpddedo        ; 665c302327136dcdb0c4a2e0;                         2;            8; cali_gain    ; lo           ; cali_gain    ; Lottery 2            ;             12; Safe option    ;               8; 22             ;            7; 21           ;                  ;                   ;                     ;                     ;                   0;                 0;                 0;                 0;      ;      ;      ;      ;      ;                       ;       ;                                                     ;                                                                             ; 2026-04-30 08:30:17.497357  ;     1777788000; Sunday, 3 May at 06:00   ;     1778047200; Wednesday, 6 May at 06:00; +£675                 ;                          0.4;                       0.4; +£140                 ;                            1;                       0.4; +£825                 ;                          0.9;                      0.36; +£825              ; 1911        ;               0;                   ;                       ;                ;                         ;                          ;                             ;                         ; Risky option; Risky option; Risky option; Risky option; Risky option; Risky option; Risky option; Safe option ; Safe option ; Safe option ; Safe option ; Safe option ; Safe option ; Safe option ; Safe option ; Safe option ; Safe option ; Safe option ; Safe option ; Safe option
i2g9x805    ; ktpddedo        ; 665c302327136dcdb0c4a2e0;                         2;            9; lottery_1    ; lo           ; lottery_1    ; Lottery 2            ;             12; Safe option    ;               9; 19             ;            8; 18           ;                  ;                   ;                     ;                     ;                   0;                 0;                 0;                 0;      ;      ;      ;      ;      ;                       ;       ;                                                     ;                                                                             ; 2026-04-30 08:30:17.497357  ;     1777788000; Sunday, 3 May at 06:00   ;     1778047200; Wednesday, 6 May at 06:00; +£675                 ;                          0.4;                       0.4; +£140                 ;                            1;                       0.4; +£825                 ;                          0.9;                      0.36; +£825              ; 1911        ;               0;                   ;                       ;                ;                         ;                          ;                             ;                         ; Risky option; Risky option; Risky option; Risky option; Risky option; Risky option; Risky option; Risky option; Safe option ;             ;             ;             ;             ;             ;             ;             ;             ;             ;             ; 
i2g9x805    ; ktpddedo        ; 665c302327136dcdb0c4a2e0;                         2;           10; lottery_4    ; lo           ; Lottery 4    ; Lottery 2            ;             12; Safe option    ;              14; -45            ;           13; -48          ;                  ;                   ;                     ;                     ;                   0;                 0;                 0;                 0;      ;      ;      ;      ;      ;                       ;       ;                                                     ;                                                                             ; 2026-04-30 08:30:17.497357  ;     1777788000; Sunday, 3 May at 06:00   ;     1778047200; Wednesday, 6 May at 06:00; +£675                 ;                          0.4;                       0.4; +£140                 ;                            1;                       0.4; +£825                 ;                          0.9;                      0.36; +£825              ; 1911        ;               0;                   ;                       ;                ;                         ;                          ;                             ;                         ; Risky option; Risky option; Risky option; Risky option; Risky option; Risky option; Risky option; Risky option; Risky option; Risky option; Risky option; Risky option; Risky option; Safe option ; Safe option ; Safe option ; Safe option ; Safe option ; Safe option ; Safe option
i2g9x805    ; ktpddedo        ; 665c302327136dcdb0c4a2e0;                         2;           11; lottery_8    ; hi           ; Lottery 8    ; Lottery 2            ;             12; Safe option    ;              11; 339            ;           10; 251          ;                 3; 295               ;                    4; 310                 ;                   0;                 0;                 0;                 0;      ;      ;      ;      ;      ;                       ;       ;                                                     ;                                                                             ; 2026-04-30 08:30:17.497357  ;     1777788000; Sunday, 3 May at 06:00   ;     1778047200; Wednesday, 6 May at 06:00; +£675                 ;                          0.4;                       0.4; +£140                 ;                            1;                       0.4; +£825                 ;                          0.9;                      0.36; +£825              ; 1911        ;               0;                   ;                       ;                ;                         ;                          ;                             ;                         ; Risky option; Risky option; Risky option; Risky option; Risky option; Risky option; Risky option; Risky option; Risky option; Risky option; Safe option ; Safe option ; Safe option ; Safe option ; Safe option ; Safe option ; Safe option ; Safe option ; Safe option ; Safe option
i2g9x805    ; ktpddedo        ; 665c302327136dcdb0c4a2e0;                         2;           12; lottery_2    ; hi           ; Lottery 2    ; Lottery 2            ;             12; Safe option    ;              11; 1911           ;           10; 1884         ;                 5; 1907              ;                    6; 1911                ;                   0;                 0;                 0;                 0;      ;      ;      ;      ;      ;                       ;       ;                                                     ;                                                                             ; 2026-04-30 08:30:17.497357  ;     1777788000; Sunday, 3 May at 06:00   ;     1778047200; Wednesday, 6 May at 06:00; +£675                 ;                          0.4;                       0.4; +£140                 ;                            1;                       0.4; +£825                 ;                          0.9;                      0.36; +£825              ; 1911        ;               0;                   ;                       ;                ;                         ;                          ;                             ;                         ; Risky option; Risky option; Risky option; Risky option; Risky option; Risky option; Risky option; Risky option; Risky option; Risky option; Safe option ; Safe option ; Safe option ; Safe option ; Safe option ; Safe option ; Safe option ; Safe option ; Safe option ; Safe option
i2g9x805    ; ktpddedo        ; 665c302327136dcdb0c4a2e0;                         2;           13; lottery_3    ; lo           ; Lottery 3    ; Lottery 2            ;             12; Safe option    ;               8; 16             ;            7; 15           ;                  ;                   ;                     ;                     ;                   0;                 0;                 0;                 0;      ;      ;      ;      ;      ;                       ;       ;                                                     ;                                                                             ; 2026-04-30 08:30:17.497357  ;     1777788000; Sunday, 3 May at 06:00   ;     1778047200; Wednesday, 6 May at 06:00; +£675                 ;                          0.4;                       0.4; +£140                 ;                            1;                       0.4; +£825                 ;                          0.9;                      0.36; +£825              ; 1911        ;               0;                   ;                       ;                ;                         ;                          ;                             ;                         ; Risky option; Risky option; Risky option; Risky option; Risky option; Risky option; Risky option; Safe option ; Safe option ; Safe option ; Safe option ; Safe option ; Safe option ; Safe option ;             ;             ;             ;             ;             ; 
i2g9x805    ; ktpddedo        ; 665c302327136dcdb0c4a2e0;                         2;           14; lottery_6    ; lo           ; Lottery 6    ; Lottery 2            ;             12; Safe option    ;              16; 34             ;           15; 26           ;                  ;                   ;                     ;                     ;                   0;                 0;                 0;                 0;      ;      ;      ;      ;      ;                       ;       ;                                                     ;                                                                             ; 2026-04-30 08:30:17.497357  ;     1777788000; Sunday, 3 May at 06:00   ;     1778047200; Wednesday, 6 May at 06:00; +£675                 ;                          0.4;                       0.4; +£140                 ;                            1;                       0.4; +£825                 ;                          0.9;                      0.36; +£825              ; 1911        ;               0;                   ;                       ;                ;                         ;                          ;                             ;                         ; Risky option; Risky option; Risky option; Risky option; Risky option; Risky option; Risky option; Risky option; Risky option; Risky option; Risky option; Risky option; Risky option; Risky option; Risky option; Safe option ; Safe option ; Safe option ; Safe option ; Safe option
i2g9x805    ; ktpddedo        ; 665c302327136dcdb0c4a2e0;                         2;           15; lottery_7    ; hi           ; Lottery 7    ; Lottery 2            ;             12; Safe option    ;              15; -1568          ;           14; -1599        ;                 0; -1599             ;                    1; -1594               ;                   0;                 0;                 0;                 0;      ;      ;      ;      ;      ;                       ;       ;                                                     ;                                                                             ; 2026-04-30 08:30:17.497357  ;     1777788000; Sunday, 3 May at 06:00   ;     1778047200; Wednesday, 6 May at 06:00; +£675                 ;                          0.4;                       0.4; +£140                 ;                            1;                       0.4; +£825                 ;                          0.9;                      0.36; +£825              ; 1911        ;               0;                   ;                       ;                ;                         ;                          ;                             ;                         ; Risky option; Risky option; Risky option; Risky option; Risky option; Risky option; Risky option; Risky option; Risky option; Risky option; Risky option; Risky option; Risky option; Risky option; Safe option ; Safe option ; Safe option ; Safe option ; Safe option ; Safe option
i2g9x805    ; ktpddedo        ; 665c302327136dcdb0c4a2e0;                         2;           16; lottery_5    ; lo           ; Lottery 5    ; Lottery 2            ;             12; Safe option    ;              10; -90            ;            9; -93          ;                  ;                   ;                     ;                     ;                   0;                 0;                 0;                 0;      ;      ;      ;      ;      ;                       ;       ;                                                     ;                                                                             ; 2026-04-30 08:30:17.497357  ;     1777788000; Sunday, 3 May at 06:00   ;     1778047200; Wednesday, 6 May at 06:00; +£675                 ;                          0.4;                       0.4; +£140                 ;                            1;                       0.4; +£825                 ;                          0.9;                      0.36; +£825              ; 1911        ;               0;                   ;                       ;                ;                         ;                          ;                             ;                         ; Risky option; Risky option; Risky option; Risky option; Risky option; Risky option; Risky option; Risky option; Risky option; Safe option ; Safe option ; Safe option ; Safe option ; Safe option ; Safe option ; Safe option ; Safe option ; Safe option ; Safe option ; Safe option
i2g9x805    ; ktpddedo        ; 665c302327136dcdb0c4a2e0;                         2;           17; lottery_2    ; hi           ; Lottery 2    ; Lottery 2            ;             12; Safe option    ;              20; 985            ;           19; 984          ;                 1; 984               ;                    2; 985                 ;                   0;                 0;                 0;                 0;      ;      ;      ;      ;      ;                       ;       ;                                                     ;                                                                             ; 2026-04-30 08:30:17.497357  ;     1777788000; Sunday, 3 May at 06:00   ;     1778047200; Wednesday, 6 May at 06:00; +£675                 ;                          0.4;                       0.4; +£140                 ;                            1;                       0.4; +£825                 ;                          0.9;                      0.36; +£825              ; 1911        ;               0;                   ;                       ;                ;                         ;                          ;                             ;                         ; Risky option; Risky option; Risky option; Risky option; Risky option; Risky option; Risky option; Risky option; Risky option; Risky option; Risky option; Risky option; Risky option; Risky option; Risky option; Risky option; Risky option; Risky option; Risky option; Safe option
i2g9x805    ; ktpddedo        ; 665c302327136dcdb0c4a2e0;                         2;           18; lottery_2    ; hi           ; Lottery 2    ; Lottery 2            ;             12; Safe option    ;              20; 845            ;           19; 844          ;                 1; 844               ;                    2; 845                 ;                   0;                 0;                 0;                 0;      ;      ;      ;      ;      ; Not complicated at all;       ; I paid attention throughout the entire study.       ; Bachelor's degree or equivalent (e.g., BA, BSc, HND, HNC, foundation degree); 2026-04-30 08:30:17.497357  ;     1777788000; Sunday, 3 May at 06:00   ;     1778047200; Wednesday, 6 May at 06:00; +£675                 ;                          0.4;                       0.4; +£140                 ;                            1;                       0.4; +£825                 ;                          0.9;                      0.36; +£825              ; 1911        ;               0;                   ;                       ;                ;                         ;                          ;                             ;                         ; Risky option; Risky option; Risky option; Risky option; Risky option; Risky option; Risky option; Risky option; Risky option; Risky option; Risky option; Risky option; Risky option; Risky option; Risky option; Risky option; Risky option; Risky option; Risky option; Safe option
i2g9x805    ; sv9wkf7e        ; 62b437a2dbff0b6b3d0121e4;                         3;            1; cali_loss_de ; lo           ; cali_loss_de ; Lottery 5            ;             15; Safe option    ;              12; -30            ;           11; -33          ;                  ;                   ;                     ;                     ;                   0;                 0;                 0;                 0; Yes  ; No   ; Yes  ; Yes  ; No   ;                       ;       ;                                                     ;                                                                             ; 2026-04-30 08:30:21.282824  ;     1777788000; Sunday, 3 May at 06:00   ;     1778047200; Wednesday, 6 May at 06:00; -£30                  ;                          0.5;                       0.5; -£29                  ;                            1;                       0.5; -£4                   ;                          0.5;                      0.25; -£4                ; -93         ;               0;                   ;                       ;                ;                         ;                          ;                             ;                         ; Risky option; Risky option; Risky option; Risky option; Risky option; Risky option; Risky option; Risky option; Risky option; Risky option; Risky option; Safe option ; Safe option ; Safe option ; Safe option ; Safe option ; Safe option ; Safe option ; Safe option ; Safe option
i2g9x805    ; sv9wkf7e        ; 62b437a2dbff0b6b3d0121e4;                         3;            2; cali_mix     ; hi           ; cali_mix     ; Lottery 5            ;             15; Safe option    ;              11; 321            ;           10; 279          ;                 5; 314               ;                    6; 321                 ;                   0;                 0;                 0;                 0;      ;      ;      ;      ;      ;                       ;       ;                                                     ;                                                                             ; 2026-04-30 08:30:21.282824  ;     1777788000; Sunday, 3 May at 06:00   ;     1778047200; Wednesday, 6 May at 06:00; -£30                  ;                          0.5;                       0.5; -£29                  ;                            1;                       0.5; -£4                   ;                          0.5;                      0.25; -£4                ; -93         ;               0;                   ;                       ;                ;                         ;                          ;                             ;                         ; Risky option; Risky option; Risky option; Risky option; Risky option; Risky option; Risky option; Risky option; Risky option; Risky option; Safe option ; Safe option ; Safe option ; Safe option ; Safe option ; Safe option ; Safe option ; Safe option ; Safe option ; Safe option
i2g9x805    ; sv9wkf7e        ; 62b437a2dbff0b6b3d0121e4;                         3;            3; cali_loss    ; lo           ; cali_loss    ; Lottery 5            ;             15; Safe option    ;              12; -30            ;           11; -33          ;                  ;                   ;                     ;                     ;                   0;                 0;                 0;                 0;      ;      ;      ;      ;      ;                       ;       ;                                                     ;                                                                             ; 2026-04-30 08:30:21.282824  ;     1777788000; Sunday, 3 May at 06:00   ;     1778047200; Wednesday, 6 May at 06:00; -£30                  ;                          0.5;                       0.5; -£29                  ;                            1;                       0.5; -£4                   ;                          0.5;                      0.25; -£4                ; -93         ;               0;                   ;                       ;                ;                         ;                          ;                             ;                         ; Risky option; Risky option; Risky option; Risky option; Risky option; Risky option; Risky option; Risky option; Risky option; Risky option; Risky option; Safe option ; Safe option ; Safe option ; Safe option ; Safe option ; Safe option ; Safe option ; Safe option ; Safe option
i2g9x805    ; sv9wkf7e        ; 62b437a2dbff0b6b3d0121e4;                         3;            4; cali_gain_de ; lo           ; cali_gain_de ; Lottery 5            ;             15; Safe option    ;              18; 37             ;           17; 36           ;                  ;                   ;                     ;                     ;                   0;                 0;                 0;                 0;      ;      ;      ;      ;      ;                       ;       ;                                                     ;                                                                             ; 2026-04-30 08:30:21.282824  ;     1777788000; Sunday, 3 May at 06:00   ;     1778047200; Wednesday, 6 May at 06:00; -£30                  ;                          0.5;                       0.5; -£29                  ;                            1;                       0.5; -£4                   ;                          0.5;                      0.25; -£4                ; -93         ;               0;                   ;                       ;                ;                         ;                          ;                             ;                         ; Risky option; Risky option; Risky option; Risky option; Risky option; Risky option; Risky option; Risky option; Risky option; Risky option; Risky option; Risky option; Risky option; Risky option; Risky option; Risky option; Risky option; Safe option ; Safe option ; Safe option
i2g9x805    ; sv9wkf7e        ; 62b437a2dbff0b6b3d0121e4;                         3;            5; cali_mix_pres; hi           ; cali_mix_pres; Lottery 5            ;             15; Safe option    ;              11; 321            ;           10; 279          ;                 3; 300               ;                    4; 307                 ;                   0;                 0;                 0;                 0;      ;      ;      ;      ;      ;                       ;       ;                                                     ;                                                                             ; 2026-04-30 08:30:21.282824  ;     1777788000; Sunday, 3 May at 06:00   ;     1778047200; Wednesday, 6 May at 06:00; -£30                  ;                          0.5;                       0.5; -£29                  ;                            1;                       0.5; -£4                   ;                          0.5;                      0.25; -£4                ; -93         ;               0;                   ;                       ;                ;                         ;                          ;                             ;                         ; Risky option; Risky option; Risky option; Risky option; Risky option; Risky option; Risky option; Risky option; Risky option; Risky option; Safe option ; Safe option ; Safe option ; Safe option ; Safe option ; Safe option ; Safe option ; Safe option ; Safe option ; Safe option
i2g9x805    ; sv9wkf7e        ; 62b437a2dbff0b6b3d0121e4;                         3;            6; cali_gain    ; lo           ; cali_gain    ; Lottery 5            ;             15; Safe option    ;              18; 37             ;           17; 36           ;                  ;                   ;                     ;                     ;                   0;                 0;                 0;                 0;      ;      ;      ;      ;      ;                       ;       ;                                                     ;                                                                             ; 2026-04-30 08:30:21.282824  ;     1777788000; Sunday, 3 May at 06:00   ;     1778047200; Wednesday, 6 May at 06:00; -£30                  ;                          0.5;                       0.5; -£29                  ;                            1;                       0.5; -£4                   ;                          0.5;                      0.25; -£4                ; -93         ;               0;                   ;                       ;                ;                         ;                          ;                             ;                         ; Risky option; Risky option; Risky option; Risky option; Risky option; Risky option; Risky option; Risky option; Risky option; Risky option; Risky option; Risky option; Risky option; Risky option; Risky option; Risky option; Risky option; Safe option ; Safe option ; Safe option
i2g9x805    ; sv9wkf7e        ; 62b437a2dbff0b6b3d0121e4;                         3;            7; cali_gain_st ; lo           ; cali_gain_st ; Lottery 5            ;             15; Safe option    ;              11; 27             ;           10; 25           ;                  ;                   ;                     ;                     ;                   0;                 0;                 0;                 0;      ;      ;      ;      ;      ;                       ;       ;                                                     ;                                                                             ; 2026-04-30 08:30:21.282824  ;     1777788000; Sunday, 3 May at 06:00   ;     1778047200; Wednesday, 6 May at 06:00; -£30                  ;                          0.5;                       0.5; -£29                  ;                            1;                       0.5; -£4                   ;                          0.5;                      0.25; -£4                ; -93         ;               0;                   ;                       ;                ;                         ;                          ;                             ;                         ; Risky option; Risky option; Risky option; Risky option; Risky option; Risky option; Risky option; Risky option; Risky option; Risky option; Safe option ; Safe option ; Safe option ; Safe option ; Safe option ; Safe option ; Safe option ; Safe option ; Safe option ; Safe option
i2g9x805    ; sv9wkf7e        ; 62b437a2dbff0b6b3d0121e4;                         3;            8; cali_loss_st ; lo           ; cali_loss_st ; Lottery 5            ;             15; Safe option    ;              16; -19            ;           15; -22          ;                  ;                   ;                     ;                     ;                   0;                 0;                 0;                 0;      ;      ;      ;      ;      ;                       ;       ;                                                     ;                                                                             ; 2026-04-30 08:30:21.282824  ;     1777788000; Sunday, 3 May at 06:00   ;     1778047200; Wednesday, 6 May at 06:00; -£30                  ;                          0.5;                       0.5; -£29                  ;                            1;                       0.5; -£4                   ;                          0.5;                      0.25; -£4                ; -93         ;               0;                   ;                       ;                ;                         ;                          ;                             ;                         ; Risky option; Risky option; Risky option; Risky option; Risky option; Risky option; Risky option; Risky option; Risky option; Risky option; Risky option; Risky option; Risky option; Risky option; Risky option; Safe option ; Safe option ; Safe option ; Safe option ; Safe option
i2g9x805    ; sv9wkf7e        ; 62b437a2dbff0b6b3d0121e4;                         3;            9; lottery_3    ; lo           ; Lottery 3    ; Lottery 5            ;             15; Safe option    ;               9; 17             ;            8; 16           ;                  ;                   ;                     ;                     ;                   0;                 0;                 0;                 0;      ;      ;      ;      ;      ;                       ;       ;                                                     ;                                                                             ; 2026-04-30 08:30:21.282824  ;     1777788000; Sunday, 3 May at 06:00   ;     1778047200; Wednesday, 6 May at 06:00; -£30                  ;                          0.5;                       0.5; -£29                  ;                            1;                       0.5; -£4                   ;                          0.5;                      0.25; -£4                ; -93         ;               0;                   ;                       ;                ;                         ;                          ;                             ;                         ; Risky option; Risky option; Risky option; Risky option; Risky option; Risky option; Risky option; Risky option; Safe option ; Safe option ; Safe option ; Safe option ; Safe option ; Safe option ;             ;             ;             ;             ;             ; 
i2g9x805    ; sv9wkf7e        ; 62b437a2dbff0b6b3d0121e4;                         3;           10; lottery_2    ; hi           ; Lottery 2    ; Lottery 5            ;             15; Safe option    ;               8; 1830           ;            7; 1803         ;                 5; 1826              ;                    6; 1830                ;                   0;                 0;                 0;                 0;      ;      ;      ;      ;      ;                       ;       ;                                                     ;                                                                             ; 2026-04-30 08:30:21.282824  ;     1777788000; Sunday, 3 May at 06:00   ;     1778047200; Wednesday, 6 May at 06:00; -£30                  ;                          0.5;                       0.5; -£29                  ;                            1;                       0.5; -£4                   ;                          0.5;                      0.25; -£4                ; -93         ;               0;                   ;                       ;                ;                         ;                          ;                             ;                         ; Risky option; Risky option; Risky option; Risky option; Risky option; Risky option; Risky option; Safe option ; Safe option ; Safe option ; Safe option ; Safe option ; Safe option ; Safe option ; Safe option ; Safe option ; Safe option ; Safe option ; Safe option ; Safe option
i2g9x805    ; sv9wkf7e        ; 62b437a2dbff0b6b3d0121e4;                         3;           11; lottery_4    ; lo           ; Lottery 4    ; Lottery 5            ;             15; Safe option    ;              11; -55            ;           10; -59          ;                  ;                   ;                     ;                     ;                   0;                 0;                 0;                 0;      ;      ;      ;      ;      ;                       ;       ;                                                     ;                                                                             ; 2026-04-30 08:30:21.282824  ;     1777788000; Sunday, 3 May at 06:00   ;     1778047200; Wednesday, 6 May at 06:00; -£30                  ;                          0.5;                       0.5; -£29                  ;                            1;                       0.5; -£4                   ;                          0.5;                      0.25; -£4                ; -93         ;               0;                   ;                       ;                ;                         ;                          ;                             ;                         ; Risky option; Risky option; Risky option; Risky option; Risky option; Risky option; Risky option; Risky option; Risky option; Risky option; Safe option ; Safe option ; Safe option ; Safe option ; Safe option ; Safe option ; Safe option ; Safe option ; Safe option ; Safe option
i2g9x805    ; sv9wkf7e        ; 62b437a2dbff0b6b3d0121e4;                         3;           12; lottery_6    ; lo           ; Lottery 6    ; Lottery 5            ;             15; Safe option    ;              12; 5              ;           11; -2           ;                  ;                   ;                     ;                     ;                   0;                 0;                 0;                 0;      ;      ;      ;      ;      ;                       ;       ;                                                     ;                                                                             ; 2026-04-30 08:30:21.282824  ;     1777788000; Sunday, 3 May at 06:00   ;     1778047200; Wednesday, 6 May at 06:00; -£30                  ;                          0.5;                       0.5; -£29                  ;                            1;                       0.5; -£4                   ;                          0.5;                      0.25; -£4                ; -93         ;               0;                   ;                       ;                ;                         ;                          ;                             ;                         ; Risky option; Risky option; Risky option; Risky option; Risky option; Risky option; Risky option; Risky option; Risky option; Risky option; Risky option; Safe option ; Safe option ; Safe option ; Safe option ; Safe option ; Safe option ; Safe option ; Safe option ; Safe option
i2g9x805    ; sv9wkf7e        ; 62b437a2dbff0b6b3d0121e4;                         3;           13; lottery_7    ; hi           ; Lottery 7    ; Lottery 5            ;             15; Safe option    ;              12; -1663          ;           11; -1694        ;                 5; -1668             ;                    6; -1663               ;                   0;                 0;                 0;                 0;      ;      ;      ;      ;      ;                       ;       ;                                                     ;                                                                             ; 2026-04-30 08:30:21.282824  ;     1777788000; Sunday, 3 May at 06:00   ;     1778047200; Wednesday, 6 May at 06:00; -£30                  ;                          0.5;                       0.5; -£29                  ;                            1;                       0.5; -£4                   ;                          0.5;                      0.25; -£4                ; -93         ;               0;                   ;                       ;                ;                         ;                          ;                             ;                         ; Risky option; Risky option; Risky option; Risky option; Risky option; Risky option; Risky option; Risky option; Risky option; Risky option; Risky option; Safe option ; Safe option ; Safe option ; Safe option ; Safe option ; Safe option ; Safe option ; Safe option ; Safe option
i2g9x805    ; sv9wkf7e        ; 62b437a2dbff0b6b3d0121e4;                         3;           14; lottery_1    ; lo           ; lottery_1    ; Lottery 5            ;             15; Safe option    ;               7; 17             ;            6; 16           ;                  ;                   ;                     ;                     ;                   0;                 0;                 0;                 0;      ;      ;      ;      ;      ;                       ;       ;                                                     ;                                                                             ; 2026-04-30 08:30:21.282824  ;     1777788000; Sunday, 3 May at 06:00   ;     1778047200; Wednesday, 6 May at 06:00; -£30                  ;                          0.5;                       0.5; -£29                  ;                            1;                       0.5; -£4                   ;                          0.5;                      0.25; -£4                ; -93         ;               0;                   ;                       ;                ;                         ;                          ;                             ;                         ; Risky option; Risky option; Risky option; Risky option; Risky option; Risky option; Safe option ; Safe option ; Safe option ;             ;             ;             ;             ;             ;             ;             ;             ;             ;             ; 
i2g9x805    ; sv9wkf7e        ; 62b437a2dbff0b6b3d0121e4;                         3;           15; lottery_5    ; lo           ; Lottery 5    ; Lottery 5            ;             15; Safe option    ;               9; -93            ;            8; -95          ;                  ;                   ;                     ;                     ;                   0;                 0;                 0;                 0;      ;      ;      ;      ;      ;                       ;       ;                                                     ;                                                                             ; 2026-04-30 08:30:21.282824  ;     1777788000; Sunday, 3 May at 06:00   ;     1778047200; Wednesday, 6 May at 06:00; -£30                  ;                          0.5;                       0.5; -£29                  ;                            1;                       0.5; -£4                   ;                          0.5;                      0.25; -£4                ; -93         ;               0;                   ;                       ;                ;                         ;                          ;                             ;                         ; Risky option; Risky option; Risky option; Risky option; Risky option; Risky option; Risky option; Risky option; Safe option ; Safe option ; Safe option ; Safe option ; Safe option ; Safe option ; Safe option ; Safe option ; Safe option ; Safe option ; Safe option ; Safe option
i2g9x805    ; sv9wkf7e        ; 62b437a2dbff0b6b3d0121e4;                         3;           16; lottery_8    ; hi           ; Lottery 8    ; Lottery 5            ;             15; Safe option    ;              14; 601            ;           13; 513          ;                 1; 528               ;                    2; 542                 ;                   0;                 0;                 0;                 0;      ;      ;      ;      ;      ;                       ;       ;                                                     ;                                                                             ; 2026-04-30 08:30:21.282824  ;     1777788000; Sunday, 3 May at 06:00   ;     1778047200; Wednesday, 6 May at 06:00; -£30                  ;                          0.5;                       0.5; -£29                  ;                            1;                       0.5; -£4                   ;                          0.5;                      0.25; -£4                ; -93         ;               0;                   ;                       ;                ;                         ;                          ;                             ;                         ; Risky option; Risky option; Risky option; Risky option; Risky option; Risky option; Risky option; Risky option; Risky option; Risky option; Risky option; Risky option; Risky option; Safe option ; Safe option ; Safe option ; Safe option ; Safe option ; Safe option ; Safe option
i2g9x805    ; sv9wkf7e        ; 62b437a2dbff0b6b3d0121e4;                         3;           17; lottery_5    ; lo           ; Lottery 5    ; Lottery 5            ;             15; Safe option    ;               5; -60            ;            4; -62          ;                  ;                   ;                     ;                     ;                   0;                 0;                 0;                 0;      ;      ;      ;      ;      ;                       ;       ;                                                     ;                                                                             ; 2026-04-30 08:30:21.282824  ;     1777788000; Sunday, 3 May at 06:00   ;     1778047200; Wednesday, 6 May at 06:00; -£30                  ;                          0.5;                       0.5; -£29                  ;                            1;                       0.5; -£4                   ;                          0.5;                      0.25; -£4                ; -93         ;               0;                   ;                       ;                ;                         ;                          ;                             ;                         ; Risky option; Risky option; Risky option; Risky option; Safe option ; Safe option ; Safe option ; Safe option ; Safe option ; Safe option ; Safe option ; Safe option ; Safe option ; Safe option ; Safe option ; Safe option ; Safe option ; Safe option ; Safe option ; Safe option
i2g9x805    ; sv9wkf7e        ; 62b437a2dbff0b6b3d0121e4;                         3;           18; lottery_5    ; lo           ; Lottery 5    ; Lottery 5            ;             15; Safe option    ;              10; -22            ;            9; -24          ;                  ;                   ;                     ;                     ;                   0;                 0;                 0;                 0;      ;      ;      ;      ;      ; A bit complicated     ;       ; I paid attention throughout the entire study.       ; Bachelor's degree or equivalent (e.g., BA, BSc, HND, HNC, foundation degree); 2026-04-30 08:30:21.282824  ;     1777788000; Sunday, 3 May at 06:00   ;     1778047200; Wednesday, 6 May at 06:00; -£30                  ;                          0.5;                       0.5; -£29                  ;                            1;                       0.5; -£4                   ;                          0.5;                      0.25; -£4                ; -93         ;               0;                   ;                       ;                ;                         ;                          ;                             ;                         ; Risky option; Risky option; Risky option; Risky option; Risky option; Risky option; Risky option; Risky option; Risky option; Safe option ; Safe option ; Safe option ; Safe option ; Safe option ; Safe option ; Safe option ; Safe option ; Safe option ; Safe option ; Safe option
i2g9x805    ; n4mcmf4e        ; 5e35373e1ddb124e6c306747;                         4;            1; cali_gain_de ; lo           ; cali_gain_de ; Lottery 8            ;             16; Safe option    ;              13; 30             ;           12; 28           ;                  ;                   ;                     ;                     ;                   0;                 0;                 0;                 0; Yes  ; No   ; Yes  ; Yes  ; No   ;                       ;       ;                                                     ;                                                                             ; 2026-04-30 08:30:26.703986  ;     1777788000; Sunday, 3 May at 06:00   ;     1778047200; Wednesday, 6 May at 06:00; +£425                 ;                          0.7;                       0.7; -£100                 ;                            1;                       0.7; -£860                 ;                          0.8;                      0.56; -£860              ; -98         ;               0;                   ;                       ;                ;                         ;                          ;                             ;                         ; Risky option; Risky option; Risky option; Risky option; Risky option; Risky option; Risky option; Risky option; Risky option; Risky option; Risky option; Risky option; Safe option ; Safe option ; Safe option ; Safe option ; Safe option ; Safe option ; Safe option ; Safe option
i2g9x805    ; n4mcmf4e        ; 5e35373e1ddb124e6c306747;                         4;            2; cali_mix_pres; hi           ; cali_mix_pres; Lottery 8            ;             16; Safe option    ;               5; 68             ;            4; 26           ;                 5; 61                ;                    6; 68                  ;                   0;                 0;                 0;                 0;      ;      ;      ;      ;      ;                       ;       ;                                                     ;                                                                             ; 2026-04-30 08:30:26.703986  ;     1777788000; Sunday, 3 May at 06:00   ;     1778047200; Wednesday, 6 May at 06:00; +£425                 ;                          0.7;                       0.7; -£100                 ;                            1;                       0.7; -£860                 ;                          0.8;                      0.56; -£860              ; -98         ;               0;                   ;                       ;                ;                         ;                          ;                             ;                         ; Risky option; Risky option; Risky option; Risky option; Safe option ; Safe option ; Safe option ; Safe option ; Safe option ; Safe option ; Safe option ; Safe option ; Safe option ; Safe option ; Safe option ; Safe option ; Safe option ; Safe option ; Safe option ; Safe option
i2g9x805    ; n4mcmf4e        ; 5e35373e1ddb124e6c306747;                         4;            3; cali_mix     ; hi           ; cali_mix     ; Lottery 8            ;             16; Safe option    ;               5; 68             ;            4; 26           ;                 3; 47                ;                    4; 54                  ;                   0;                 0;                 0;                 0;      ;      ;      ;      ;      ;                       ;       ;                                                     ;                                                                             ; 2026-04-30 08:30:26.703986  ;     1777788000; Sunday, 3 May at 06:00   ;     1778047200; Wednesday, 6 May at 06:00; +£425                 ;                          0.7;                       0.7; -£100                 ;                            1;                       0.7; -£860                 ;                          0.8;                      0.56; -£860              ; -98         ;               0;                   ;                       ;                ;                         ;                          ;                             ;                         ; Risky option; Risky option; Risky option; Risky option; Safe option ; Safe option ; Safe option ; Safe option ; Safe option ; Safe option ; Safe option ; Safe option ; Safe option ; Safe option ; Safe option ; Safe option ; Safe option ; Safe option ; Safe option ; Safe option
i2g9x805    ; n4mcmf4e        ; 5e35373e1ddb124e6c306747;                         4;            4; cali_loss_st ; lo           ; cali_loss_st ; Lottery 8            ;             16; Safe option    ;              17; -16            ;           16; -19          ;                  ;                   ;                     ;                     ;                   0;                 0;                 0;                 0;      ;      ;      ;      ;      ;                       ;       ;                                                     ;                                                                             ; 2026-04-30 08:30:26.703986  ;     1777788000; Sunday, 3 May at 06:00   ;     1778047200; Wednesday, 6 May at 06:00; +£425                 ;                          0.7;                       0.7; -£100                 ;                            1;                       0.7; -£860                 ;                          0.8;                      0.56; -£860              ; -98         ;               0;                   ;                       ;                ;                         ;                          ;                             ;                         ; Risky option; Risky option; Risky option; Risky option; Risky option; Risky option; Risky option; Risky option; Risky option; Risky option; Risky option; Risky option; Risky option; Risky option; Risky option; Risky option; Safe option ; Safe option ; Safe option ; Safe option
i2g9x805    ; n4mcmf4e        ; 5e35373e1ddb124e6c306747;                         4;            5; cali_loss    ; lo           ; cali_loss    ; Lottery 8            ;             16; Safe option    ;              18; -13            ;           17; -16          ;                  ;                   ;                     ;                     ;                   0;                 0;                 0;                 0;      ;      ;      ;      ;      ;                       ;       ;                                                     ;                                                                             ; 2026-04-30 08:30:26.703986  ;     1777788000; Sunday, 3 May at 06:00   ;     1778047200; Wednesday, 6 May at 06:00; +£425                 ;                          0.7;                       0.7; -£100                 ;                            1;                       0.7; -£860                 ;                          0.8;                      0.56; -£860              ; -98         ;               0;                   ;                       ;                ;                         ;                          ;                             ;                         ; Risky option; Risky option; Risky option; Risky option; Risky option; Risky option; Risky option; Risky option; Risky option; Risky option; Risky option; Risky option; Risky option; Risky option; Risky option; Risky option; Risky option; Safe option ; Safe option ; Safe option
i2g9x805    ; n4mcmf4e        ; 5e35373e1ddb124e6c306747;                         4;            6; cali_gain_st ; lo           ; cali_gain_st ; Lottery 8            ;             16; Safe option    ;               8; 22             ;            7; 21           ;                  ;                   ;                     ;                     ;                   0;                 0;                 0;                 0;      ;      ;      ;      ;      ;                       ;       ;                                                     ;                                                                             ; 2026-04-30 08:30:26.703986  ;     1777788000; Sunday, 3 May at 06:00   ;     1778047200; Wednesday, 6 May at 06:00; +£425                 ;                          0.7;                       0.7; -£100                 ;                            1;                       0.7; -£860                 ;                          0.8;                      0.56; -£860              ; -98         ;               0;                   ;                       ;                ;                         ;                          ;                             ;                         ; Risky option; Risky option; Risky option; Risky option; Risky option; Risky option; Risky option; Safe option ; Safe option ; Safe option ; Safe option ; Safe option ; Safe option ; Safe option ; Safe option ; Safe option ; Safe option ; Safe option ; Safe option ; Safe option
i2g9x805    ; n4mcmf4e        ; 5e35373e1ddb124e6c306747;                         4;            7; cali_gain    ; lo           ; cali_gain    ; Lottery 8            ;             16; Safe option    ;              19; 39             ;           18; 37           ;                  ;                   ;                     ;                     ;                   0;                 0;                 0;                 0;      ;      ;      ;      ;      ;                       ;       ;                                                     ;                                                                             ; 2026-04-30 08:30:26.703986  ;     1777788000; Sunday, 3 May at 06:00   ;     1778047200; Wednesday, 6 May at 06:00; +£425                 ;                          0.7;                       0.7; -£100                 ;                            1;                       0.7; -£860                 ;                          0.8;                      0.56; -£860              ; -98         ;               0;                   ;                       ;                ;                         ;                          ;                             ;                         ; Risky option; Risky option; Risky option; Risky option; Risky option; Risky option; Risky option; Risky option; Risky option; Risky option; Risky option; Risky option; Risky option; Risky option; Risky option; Risky option; Risky option; Risky option; Safe option ; Safe option
i2g9x805    ; n4mcmf4e        ; 5e35373e1ddb124e6c306747;                         4;            8; cali_loss_de ; lo           ; cali_loss_de ; Lottery 8            ;             16; Safe option    ;              20; -8             ;           19; -11          ;                  ;                   ;                     ;                     ;                   0;                 0;                 0;                 0;      ;      ;      ;      ;      ;                       ;       ;                                                     ;                                                                             ; 2026-04-30 08:30:26.703986  ;     1777788000; Sunday, 3 May at 06:00   ;     1778047200; Wednesday, 6 May at 06:00; +£425                 ;                          0.7;                       0.7; -£100                 ;                            1;                       0.7; -£860                 ;                          0.8;                      0.56; -£860              ; -98         ;               0;                   ;                       ;                ;                         ;                          ;                             ;                         ; Risky option; Risky option; Risky option; Risky option; Risky option; Risky option; Risky option; Risky option; Risky option; Risky option; Risky option; Risky option; Risky option; Risky option; Risky option; Risky option; Risky option; Risky option; Risky option; Safe option
i2g9x805    ; n4mcmf4e        ; 5e35373e1ddb124e6c306747;                         4;            9; lottery_3    ; lo           ; Lottery 3    ; Lottery 8            ;             16; Safe option    ;               4; 12             ;            3; 11           ;                  ;                   ;                     ;                     ;                   0;                 0;                 0;                 0;      ;      ;      ;      ;      ;                       ;       ;                                                     ;                                                                             ; 2026-04-30 08:30:26.703986  ;     1777788000; Sunday, 3 May at 06:00   ;     1778047200; Wednesday, 6 May at 06:00; +£425                 ;                          0.7;                       0.7; -£100                 ;                            1;                       0.7; -£860                 ;                          0.8;                      0.56; -£860              ; -98         ;               0;                   ;                       ;                ;                         ;                          ;                             ;                         ; Risky option; Risky option; Risky option; Safe option ; Safe option ; Safe option ; Safe option ; Safe option ; Safe option ; Safe option ; Safe option ; Safe option ; Safe option ; Safe option ;             ;             ;             ;             ;             ; 
i2g9x805    ; n4mcmf4e        ; 5e35373e1ddb124e6c306747;                         4;           10; lottery_1    ; lo           ; lottery_1    ; Lottery 8            ;             16; Safe option    ;               4; 14             ;            3; 13           ;                  ;                   ;                     ;                     ;                   0;                 0;                 0;                 0;      ;      ;      ;      ;      ;                       ;       ;                                                     ;                                                                             ; 2026-04-30 08:30:26.703986  ;     1777788000; Sunday, 3 May at 06:00   ;     1778047200; Wednesday, 6 May at 06:00; +£425                 ;                          0.7;                       0.7; -£100                 ;                            1;                       0.7; -£860                 ;                          0.8;                      0.56; -£860              ; -98         ;               0;                   ;                       ;                ;                         ;                          ;                             ;                         ; Risky option; Risky option; Risky option; Safe option ; Safe option ; Safe option ; Safe option ; Safe option ; Safe option ;             ;             ;             ;             ;             ;             ;             ;             ;             ;             ; 
i2g9x805    ; n4mcmf4e        ; 5e35373e1ddb124e6c306747;                         4;           11; lottery_5    ; lo           ; Lottery 5    ; Lottery 8            ;             16; Safe option    ;              17; -71            ;           16; -74          ;                  ;                   ;                     ;                     ;                   0;                 0;                 0;                 0;      ;      ;      ;      ;      ;                       ;       ;                                                     ;                                                                             ; 2026-04-30 08:30:26.703986  ;     1777788000; Sunday, 3 May at 06:00   ;     1778047200; Wednesday, 6 May at 06:00; +£425                 ;                          0.7;                       0.7; -£100                 ;                            1;                       0.7; -£860                 ;                          0.8;                      0.56; -£860              ; -98         ;               0;                   ;                       ;                ;                         ;                          ;                             ;                         ; Risky option; Risky option; Risky option; Risky option; Risky option; Risky option; Risky option; Risky option; Risky option; Risky option; Risky option; Risky option; Risky option; Risky option; Risky option; Risky option; Safe option ; Safe option ; Safe option ; Safe option
i2g9x805    ; n4mcmf4e        ; 5e35373e1ddb124e6c306747;                         4;           12; lottery_6    ; lo           ; Lottery 6    ; Lottery 8            ;             16; Safe option    ;              10; -9             ;            9; -16          ;                  ;                   ;                     ;                     ;                   0;                 0;                 0;                 0;      ;      ;      ;      ;      ;                       ;       ;                                                     ;                                                                             ; 2026-04-30 08:30:26.703986  ;     1777788000; Sunday, 3 May at 06:00   ;     1778047200; Wednesday, 6 May at 06:00; +£425                 ;                          0.7;                       0.7; -£100                 ;                            1;                       0.7; -£860                 ;                          0.8;                      0.56; -£860              ; -98         ;               0;                   ;                       ;                ;                         ;                          ;                             ;                         ; Risky option; Risky option; Risky option; Risky option; Risky option; Risky option; Risky option; Risky option; Risky option; Safe option ; Safe option ; Safe option ; Safe option ; Safe option ; Safe option ; Safe option ; Safe option ; Safe option ; Safe option ; Safe option
