session_code,participant_code,participant_label,participant_id_in_session,round_number,lottery_id,lottery_stake,lottery_name,selected_lottery_name,selected_round,selected_option,selected_choice,selected_amount,cutoff_index,cutoff_amount,fine_cutoff_index,fine_cutoff_amount,fine_selected_choice,fine_selected_amount,num_failed_attempts,failed_too_many_1,failed_too_many_2,failed_too_many_3,quiz1,quiz2,quiz3,quiz4,quiz5,quiz6,quiz7,quiz8,participant_time_started_utc,session2_start,session2_start_readable,session3_start,session3_start_readable,realized_period1_label,realized_period1_probability,realized_period1_abs_prob,realized_period2_label,realized_period2_probability,realized_period2_abs_prob,realized_period3_label,realized_period3_probability,realized_period3_abs_prob,final_outcome_label,final_payoff,chf_1,chf_2,chf_3,chf_4,chf_5,chf_6,chf_7,chf_8,chf_9,chf_10,chf_11,chf_12,chf_13,chf_14,chf_15,chf_16,chf_17,chf_18,chf_19,chf_20
yedk7nh8,6i4aahwl,5e4feb8037713502e9ed364b,1,1,lottery_1,lo,Apple,Apple,1,Safe option,10,-3,9,-8,,,,,0,0,0,0,Yes,No,Yes,Yes,No,,,,2026-02-14 09:52:09.001436,1771308000.0,"Tuesday, 17 February at 06:00",1771567200.0,"Friday, 20 February at 06:00",+£26,0.5,0.5,-£29,1,0.5,-£43,0.5,0.25,-£43,-3,Risky option,Risky option,Risky option,Risky option,Risky option,Risky option,Risky option,Risky option,Risky option,Safe option,Safe option,Safe option,Safe option,Safe option,Safe option,Safe option,Safe option,Safe option,Safe option,Safe option
yedk7nh8,6i4aahwl,5e4feb8037713502e9ed364b,1,2,lottery_7,hi,Dragonfruit,Apple,1,Safe option,11,36,10,-61,3,-12,4,4,0,0,0,0,,,,,,,,,2026-02-14 09:52:09.001436,1771308000.0,"Tuesday, 17 February at 06:00",1771567200.0,"Friday, 20 February at 06:00",+£26,0.5,0.5,-£29,1,0.5,-£43,0.5,0.25,-£43,-3,Risky option,Risky option,Risky option,Risky option,Risky option,Risky option,Risky option,Risky option,Risky option,Risky option,Safe option,Safe option,Safe option,Safe option,Safe option,Safe option,Safe option,Safe option,Safe option,Safe option
yedk7nh8,6i4aahwl,5e4feb8037713502e9ed364b,1,3,lottery_13,lo,Fig,Apple,1,Safe option,7,-13,6,-17,,,,,0,0,0,0,,,,,,,,,2026-02-14 09:52:09.001436,1771308000.0,"Tuesday, 17 February at 06:00",1771567200.0,"Friday, 20 February at 06:00",+£26,0.5,0.5,-£29,1,0.5,-£43,0.5,0.25,-£43,-3,Risky option,Risky option,Risky option,Risky option,Risky option,Risky option,Safe option,Safe option,Safe option,Safe option,Safe option,Safe option,Safe option,Safe option,Safe option,Safe option,Safe option,Safe option,Safe option,Safe option
yedk7nh8,6i4aahwl,5e4feb8037713502e9ed364b,1,4,lottery_6,hi,Coconut,Apple,1,Safe option,14,0,13,-56,4,-19,5,-9,0,0,0,0,,,,,,,,,2026-02-14 09:52:09.001436,1771308000.0,"Tuesday, 17 February at 06:00",1771567200.0,"Friday, 20 February at 06:00",+£26,0.5,0.5,-£29,1,0.5,-£43,0.5,0.25,-£43,-3,Risky option,Risky option,Risky option,Risky option,Risky option,Risky option,Risky option,Risky option,Risky option,Risky option,Risky option,Risky option,Risky option,Safe option,Safe option,Safe option,Safe option,Safe option,Safe option,Safe option
yedk7nh8,6i4aahwl,5e4feb8037713502e9ed364b,1,5,lottery_10,lo,Pomegranate,Apple,1,Safe option,7,-15,6,-19,,,,,0,0,0,0,,,,,,,,,2026-02-14 09:52:09.001436,1771308000.0,"Tuesday, 17 February at 06:00",1771567200.0,"Friday, 20 February at 06:00",+£26,0.5,0.5,-£29,1,0.5,-£43,0.5,0.25,-£43,-3,Risky option,Risky option,Risky option,Risky option,Risky option,Risky option,Safe option,Safe option,Safe option,Safe option,Safe option,Safe option,Safe option,Safe option,Safe option,Safe option,Safe option,Safe option,Safe option,Safe option
yedk7nh8,6i4aahwl,5e4feb8037713502e9ed364b,1,6,lottery_5,hi,Melon,Apple,1,Safe option,13,-14,12,-72,4,-33,5,-24,0,0,0,0,,,,,,,,,2026-02-14 09:52:09.001436,1771308000.0,"Tuesday, 17 February at 06:00",1771567200.0,"Friday, 20 February at 06:00",+£26,0.5,0.5,-£29,1,0.5,-£43,0.5,0.25,-£43,-3,Risky option,Risky option,Risky option,Risky option,Risky option,Risky option,Risky option,Risky option,Risky option,Risky option,Risky option,Risky option,Safe option,Safe option,Safe option,Safe option,Safe option,Safe option,Safe option,Safe option
yedk7nh8,6i4aahwl,5e4feb8037713502e9ed364b,1,7,lottery_11,lo,Avocado,Apple,1,Safe option,8,-6,7,-10,,,,,0,0,0,0,,,,,,,,,2026-02-14 09:52:09.001436,1771308000.0,"Tuesday, 17 February at 06:00",1771567200.0,"Friday, 20 February at 06:00",+£26,0.5,0.5,-£29,1,0.5,-£43,0.5,0.25,-£43,-3,Risky option,Risky option,Risky option,Risky option,Risky option,Risky option,Risky option,Safe option,Safe option,Safe option,Safe option,Safe option,Safe option,Safe option,Safe option,Safe option,Safe option,Safe option,Safe option,Safe option
yedk7nh8,6i4aahwl,5e4feb8037713502e9ed364b,1,8,lottery_8,hi,Plum,Apple,1,Safe option,13,-8,12,-117,4,-44,5,-26,0,0,0,0,,,,,,,,,2026-02-14 09:52:09.001436,1771308000.0,"Tuesday, 17 February at 06:00",1771567200.0,"Friday, 20 February at 06:00",+£26,0.5,0.5,-£29,1,0.5,-£43,0.5,0.25,-£43,-3,Risky option,Risky option,Risky option,Risky option,Risky option,Risky option,Risky option,Risky option,Risky option,Risky option,Risky option,Risky option,Safe option,Safe option,Safe option,Safe option,Safe option,Safe option,Safe option,Safe option
yedk7nh8,6i4aahwl,5e4feb8037713502e9ed364b,1,9,lottery_3,lo,Orange,Apple,1,Safe option,9,-7,8,-12,,,,,0,0,0,0,,,,,,,,,2026-02-14 09:52:09.001436,1771308000.0,"Tuesday, 17 February at 06:00",1771567200.0,"Friday, 20 February at 06:00",+£26,0.5,0.5,-£29,1,0.5,-£43,0.5,0.25,-£43,-3,Risky option,Risky option,Risky option,Risky option,Risky option,Risky option,Risky option,Risky option,Safe option,Safe option,Safe option,Safe option,Safe option,Safe option,Safe option,Safe option,Safe option,Safe option,Safe option,Safe option
yedk7nh8,6i4aahwl,5e4feb8037713502e9ed364b,1,10,lottery_9,hi,Durian,Apple,1,Safe option,9,21,8,-51,2,-27,3,-15,0,0,0,0,,,,,,,,,2026-02-14 09:52:09.001436,1771308000.0,"Tuesday, 17 February at 06:00",1771567200.0,"Friday, 20 February at 06:00",+£26,0.5,0.5,-£29,1,0.5,-£43,0.5,0.25,-£43,-3,Risky option,Risky option,Risky option,Risky option,Risky option,Risky option,Risky option,Risky option,Safe option,Safe option,Safe option,Safe option,Safe option,Safe option,Safe option,Safe option,Safe option,Safe option,Safe option,Safe option
yedk7nh8,6i4aahwl,5e4feb8037713502e9ed364b,1,11,lottery_4,hi,Pineapple,Apple,1,Safe option,12,-2,11,-64,4,-23,5,-12,0,0,0,0,,,,,,,,,2026-02-14 09:52:09.001436,1771308000.0,"Tuesday, 17 February at 06:00",1771567200.0,"Friday, 20 February at 06:00",+£26,0.5,0.5,-£29,1,0.5,-£43,0.5,0.25,-£43,-3,Risky option,Risky option,Risky option,Risky option,Risky option,Risky option,Risky option,Risky option,Risky option,Risky option,Risky option,Safe option,Safe option,Safe option,Safe option,Safe option,Safe option,Safe option,Safe option,Safe option
yedk7nh8,6i4aahwl,5e4feb8037713502e9ed364b,1,12,lottery_12,lo,Raspberry,Apple,1,Safe option,9,-13,8,-18,,,,,0,0,0,0,,,,,,,,,2026-02-14 09:52:09.001436,1771308000.0,"Tuesday, 17 February at 06:00",1771567200.0,"Friday, 20 February at 06:00",+£26,0.5,0.5,-£29,1,0.5,-£43,0.5,0.25,-£43,-3,Risky option,Risky option,Risky option,Risky option,Risky option,Risky option,Risky option,Risky option,Safe option,Safe option,Safe option,Safe option,Safe option,Safe option,Safe option,Safe option,Safe option,Safe option,Safe option,Safe option
yedk7nh8,6i4aahwl,5e4feb8037713502e9ed364b,1,13,lottery_14,lo,Papaya,Apple,1,Safe option,8,-8,7,-13,,,,,0,0,0,0,,,,,,,,,2026-02-14 09:52:09.001436,1771308000.0,"Tuesday, 17 February at 06:00",1771567200.0,"Friday, 20 February at 06:00",+£26,0.5,0.5,-£29,1,0.5,-£43,0.5,0.25,-£43,-3,Risky option,Risky option,Risky option,Risky option,Risky option,Risky option,Risky option,Safe option,Safe option,Safe option,Safe option,Safe option,Safe option,Safe option,Safe option,Safe option,Safe option,Safe option,Safe option,Safe option
yedk7nh8,6i4aahwl,5e4feb8037713502e9ed364b,1,14,lottery_2,lo,Banana,Apple,1,Safe option,7,-12,6,-17,,,,,0,0,0,0,,,,,,,,,2026-02-14 09:52:09.001436,1771308000.0,"Tuesday, 17 February at 06:00",1771567200.0,"Friday, 20 February at 06:00",+£26,0.5,0.5,-£29,1,0.5,-£43,0.5,0.25,-£43,-3,Risky option,Risky option,Risky option,Risky option,Risky option,Risky option,Safe option,Safe option,Safe option,Safe option,Safe option,Safe option,Safe option,Safe option,Safe option,Safe option,Safe option,Safe option,Safe option,Safe option
yedk7nh8,6i4aahwl,5e4feb8037713502e9ed364b,1,15,lottery_1,lo,Apple,Apple,1,Safe option,15,-12,14,-16,,,,,0,0,0,0,,,,,,,,,2026-02-14 09:52:09.001436,1771308000.0,"Tuesday, 17 February at 06:00",1771567200.0,"Friday, 20 February at 06:00",+£26,0.5,0.5,-£29,1,0.5,-£43,0.5,0.25,-£43,-3,Risky option,Risky option,Risky option,Risky option,Risky option,Risky option,Risky option,Risky option,Risky option,Risky option,Risky option,Risky option,Risky option,Risky option,Safe option,Safe option,Safe option,Safe option,Safe option,Safe option
yedk7nh8,6i4aahwl,5e4feb8037713502e9ed364b,1,16,lottery_1,lo,Apple,Apple,1,Safe option,12,4,11,0,,,,,0,0,0,0,,,,,,A bit complicated,I paid attention throughout the entire study.,"Bachelor's degree or equivalent (e.g., BA, BSc, HND, HNC, foundation degree)",2026-02-14 09:52:09.001436,1771308000.0,"Tuesday, 17 February at 06:00",1771567200.0,"Friday, 20 February at 06:00",+£26,0.5,0.5,-£29,1,0.5,-£43,0.5,0.25,-£43,-3,Risky option,Risky option,Risky option,Risky option,Risky option,Risky option,Risky option,Risky option,Risky option,Risky option,Risky option,Safe option,Safe option,Safe option,Safe option,Safe option,Safe option,Safe option,Safe option,Safe option
yedk7nh8,jk4jxbw7,629f6b8c65fcae219e245284,2,1,lottery_3,lo,Orange,Plum,4,Safe option,10,-2,9,-7,,,,,0,0,0,0,Yes,No,Yes,Yes,No,,,,2026-02-14 09:52:14.506697,1771308000.0,"Tuesday, 17 February at 06:00",1771567200.0,"Friday, 20 February at 06:00",+£200,0.9,0.9,-£365,1,0.9,-£985,0.4,0.36,-£985,-552,Risky option,Risky option,Risky option,Risky option,Risky option,Risky option,Risky option,Risky option,Risky option,Safe option,Safe option,Safe option,Safe option,Safe option,Safe option,Safe option,Safe option,Safe option,Safe option,Safe option
yedk7nh8,jk4jxbw7,629f6b8c65fcae219e245284,2,2,lottery_2,lo,Banana,Plum,4,Safe option,8,-6,7,-12,,,,,0,0,0,0,,,,,,,,,2026-02-14 09:52:14.506697,1771308000.0,"Tuesday, 17 February at 06:00",1771567200.0,"Friday, 20 February at 06:00",+£200,0.9,0.9,-£365,1,0.9,-£985,0.4,0.36,-£985,-552,Risky option,Risky option,Risky option,Risky option,Risky option,Risky option,Risky option,Safe option,Safe option,Safe option,Safe option,Safe option,Safe option,Safe option,Safe option,Safe option,Safe option,Safe option,Safe option,Safe option
yedk7nh8,jk4jxbw7,629f6b8c65fcae219e245284,2,3,lottery_7,hi,Dragonfruit,Plum,4,Safe option,16,519,15,422,0,422,1,438,0,0,0,0,,,,,,,,,2026-02-14 09:52:14.506697,1771308000.0,"Tuesday, 17 February at 06:00",1771567200.0,"Friday, 20 February at 06:00",+£200,0.9,0.9,-£365,1,0.9,-£985,0.4,0.36,-£985,-552,Risky option,Risky option,Risky option,Risky option,Risky option,Risky option,Risky option,Risky option,Risky option,Risky option,Risky option,Risky option,Risky option,Risky option,Risky option,Safe option,Safe option,Safe option,Safe option,Safe option
yedk7nh8,jk4jxbw7,629f6b8c65fcae219e245284,2,4,lottery_8,hi,Plum,Plum,4,Safe option,8,-552,7,-661,4,-588,5,-570,0,0,0,0,,,,,,,,,2026-02-14 09:52:14.506697,1771308000.0,"Tuesday, 17 February at 06:00",1771567200.0,"Friday, 20 February at 06:00",+£200,0.9,0.9,-£365,1,0.9,-£985,0.4,0.36,-£985,-552,Risky option,Risky option,Risky option,Risky option,Risky option,Risky option,Risky option,Safe option,Safe option,Safe option,Safe option,Safe option,Safe option,Safe option,Safe option,Safe option,Safe option,Safe option,Safe option,Safe option
yedk7nh8,jk4jxbw7,629f6b8c65fcae219e245284,2,5,lottery_11,lo,Avocado,Plum,4,Safe option,7,-10,6,-14,,,,,0,0,0,0,,,,,,,,,2026-02-14 09:52:14.506697,1771308000.0,"Tuesday, 17 February at 06:00",1771567200.0,"Friday, 20 February at 06:00",+£200,0.9,0.9,-£365,1,0.9,-£985,0.4,0.36,-£985,-552,Risky option,Risky option,Risky option,Risky option,Risky option,Risky option,Safe option,Safe option,Safe option,Safe option,Safe option,Safe option,Safe option,Safe option,Safe option,Safe option,Safe option,Safe option,Safe option,Safe option
yedk7nh8,jk4jxbw7,629f6b8c65fcae219e245284,2,6,lottery_9,hi,Durian,Plum,4,Safe option,3,-415,2,-487,0,-487,1,-475,0,0,0,0,,,,,,,,,2026-02-14 09:52:14.506697,1771308000.0,"Tuesday, 17 February at 06:00",1771567200.0,"Friday, 20 February at 06:00",+£200,0.9,0.9,-£365,1,0.9,-£985,0.4,0.36,-£985,-552,Risky option,Risky option,Safe option,Safe option,Safe option,Safe option,Safe option,Safe option,Safe option,Safe option,Safe option,Safe option,Safe option,Safe option,Safe option,Safe option,Safe option,Safe option,Safe option,Safe option
yedk7nh8,jk4jxbw7,629f6b8c65fcae219e245284,2,7,lottery_4,hi,Pineapple,Plum,4,Safe option,8,-250,7,-312,2,-291,3,-281,0,0,0,0,,,,,,,,,2026-02-14 09:52:14.506697,1771308000.0,"Tuesday, 17 February at 06:00",1771567200.0,"Friday, 20 February at 06:00",+£200,0.9,0.9,-£365,1,0.9,-£985,0.4,0.36,-£985,-552,Risky option,Risky option,Risky option,Risky option,Risky option,Risky option,Risky option,Safe option,Safe option,Safe option,Safe option,Safe option,Safe option,Safe option,Safe option,Safe option,Safe option,Safe option,Safe option,Safe option
yedk7nh8,jk4jxbw7,629f6b8c65fcae219e245284,2,8,lottery_6,hi,Coconut,Plum,4,Safe option,19,279,18,223,4,260,5,270,0,0,0,0,,,,,,,,,2026-02-14 09:52:14.506697,1771308000.0,"Tuesday, 17 February at 06:00",1771567200.0,"Friday, 20 February at 06:00",+£200,0.9,0.9,-£365,1,0.9,-£985,0.4,0.36,-£985,-552,Risky option,Risky option,Risky option,Risky option,Risky option,Risky option,Risky option,Risky option,Risky option,Risky option,Risky option,Risky option,Risky option,Risky option,Risky option,Risky option,Risky option,Risky option,Safe option,Safe option
yedk7nh8,jk4jxbw7,629f6b8c65fcae219e245284,2,9,lottery_12,lo,Raspberry,Plum,4,Safe option,8,-18,7,-22,,,,,0,0,0,0,,,,,,,,,2026-02-14 09:52:14.506697,1771308000.0,"Tuesday, 17 February at 06:00",1771567200.0,"Friday, 20 February at 06:00",+£200,0.9,0.9,-£365,1,0.9,-£985,0.4,0.36,-£985,-552,Risky option,Risky option,Risky option,Risky option,Risky option,Risky option,Risky option,Safe option,Safe option,Safe option,Safe option,Safe option,Safe option,Safe option,Safe option,Safe option,Safe option,Safe option,Safe option,Safe option
yedk7nh8,jk4jxbw7,629f6b8c65fcae219e245284,2,10,lottery_5,hi,Melon,Plum,4,Safe option,12,-72,11,-131,0,-131,1,-121,0,0,0,0,,,,,,,,,2026-02-14 09:52:14.506697,1771308000.0,"Tuesday, 17 February at 06:00",1771567200.0,"Friday, 20 February at 06:00",+£200,0.9,0.9,-£365,1,0.9,-£985,0.4,0.36,-£985,-552,Risky option,Risky option,Risky option,Risky option,Risky option,Risky option,Risky option,Risky option,Risky option,Risky option,Risky option,Safe option,Safe option,Safe option,Safe option,Safe option,Safe option,Safe option,Safe option,Safe option
yedk7nh8,jk4jxbw7,629f6b8c65fcae219e245284,2,11,lottery_1,lo,Apple,Plum,4,Safe option,7,-18,6,-22,,,,,0,0,0,0,,,,,,,,,2026-02-14 09:52:14.506697,1771308000.0,"Tuesday, 17 February at 06:00",1771567200.0,"Friday, 20 February at 06:00",+£200,0.9,0.9,-£365,1,0.9,-£985,0.4,0.36,-£985,-552,Risky option,Risky option,Risky option,Risky option,Risky option,Risky option,Safe option,Safe option,Safe option,Safe option,Safe option,Safe option,Safe option,Safe option,Safe option,Safe option,Safe option,Safe option,Safe option,Safe option
yedk7nh8,jk4jxbw7,629f6b8c65fcae219e245284,2,12,lottery_14,lo,Papaya,Plum,4,Safe option,4,-26,3,-30,,,,,0,0,0,0,,,,,,,,,2026-02-14 09:52:14.506697,1771308000.0,"Tuesday, 17 February at 06:00",1771567200.0,"Friday, 20 February at 06:00",+£200,0.9,0.9,-£365,1,0.9,-£985,0.4,0.36,-£985,-552,Risky option,Risky option,Risky option,Safe option,Safe option,Safe option,Safe option,Safe option,Safe option,Safe option,Safe option,Safe option,Safe option,Safe option,Safe option,Safe option,Safe option,Safe option,Safe option,Safe option
yedk7nh8,jk4jxbw7,629f6b8c65fcae219e245284,2,13,lottery_13,lo,Fig,Plum,4,Safe option,2,-35,1,-40,,,,,0,0,0,0,,,,,,,,,2026-02-14 09:52:14.506697,1771308000.0,"Tuesday, 17 February at 06:00",1771567200.0,"Friday, 20 February at 06:00",+£200,0.9,0.9,-£365,1,0.9,-£985,0.4,0.36,-£985,-552,Risky option,Safe option,Safe option,Safe option,Safe option,Safe option,Safe option,Safe option,Safe option,Safe option,Safe option,Safe option,Safe option,Safe option,Safe option,Safe option,Safe option,Safe option,Safe option,Safe option
yedk7nh8,jk4jxbw7,629f6b8c65fcae219e245284,2,14,lottery_10,lo,Pomegranate,Plum,4,Safe option,17,31,16,27,,,,,0,0,0,0,,,,,,,,,2026-02-14 09:52:14.506697,1771308000.0,"Tuesday, 17 February at 06:00",1771567200.0,"Friday, 20 February at 06:00",+£200,0.9,0.9,-£365,1,0.9,-£985,0.4,0.36,-£985,-552,Risky option,Risky option,Risky option,Risky option,Risky option,Risky option,Risky option,Risky option,Risky option,Risky option,Risky option,Risky option,Risky option,Risky option,Risky option,Risky option,Safe option,Safe option,Safe option,Safe option
yedk7nh8,jk4jxbw7,629f6b8c65fcae219e245284,2,15,lottery_8,hi,Plum,Plum,4,Safe option,18,354,17,254,2,287,3,304,0,0,0,0,,,,,,,,,2026-02-14 09:52:14.506697,1771308000.0,"Tuesday, 17 February at 06:00",1771567200.0,"Friday, 20 February at 06:00",+£200,0.9,0.9,-£365,1,0.9,-£985,0.4,0.36,-£985,-552,Risky option,Risky option,Risky option,Risky option,Risky option,Risky option,Risky option,Risky option,Risky option,Risky option,Risky option,Risky option,Risky option,Risky option,Risky option,Risky option,Risky option,Safe option,Safe option,Safe option
yedk7nh8,jk4jxbw7,629f6b8c65fcae219e245284,2,16,lottery_8,hi,Plum,Plum,4,Safe option,15,419,14,318,4,385,5,402,0,0,0,0,,,,,,Not complicated at all,I paid attention throughout the entire study.,"GCSEs or equivalent (e.g., IGCSE, BTEC Firsts)",2026-02-14 09:52:14.506697,1771308000.0,"Tuesday, 17 February at 06:00",1771567200.0,"Friday, 20 February at 06:00",+£200,0.9,0.9,-£365,1,0.9,-£985,0.4,0.36,-£985,-552,Risky option,Risky option,Risky option,Risky option,Risky option,Risky option,Risky option,Risky option,Risky option,Risky option,Risky option,Risky option,Risky option,Risky option,Safe option,Safe option,Safe option,Safe option,Safe option,Safe option
yedk7nh8,xyh758sk,631610af8e747093cd90e00d,3,1,lottery_2,lo,Banana,Pomegranate,9,Safe option,12,16,11,11,,,,,0,0,0,0,Yes,No,Yes,Yes,No,,,,2026-02-14 09:52:23.621501,1771308000.0,"Tuesday, 17 February at 06:00",1771567200.0,"Friday, 20 February at 06:00",+£11,0.7,0.7,-£2,0.6,0.42,+£3,0.8,0.336,+£3,-10,Risky option,Risky option,Risky option,Risky option,Risky option,Risky option,Risky option,Risky option,Risky option,Risky option,Risky option,Safe option,Safe option,Safe option,Safe option,Safe option,Safe option,Safe option,Safe option,Safe option
yedk7nh8,xyh758sk,631610af8e747093cd90e00d,3,2,lottery_14,lo,Papaya,Pomegranate,9,Safe option,12,9,11,5,,,,,0,0,0,0,,,,,,,,,2026-02-14 09:52:23.621501,1771308000.0,"Tuesday, 17 February at 06:00",1771567200.0,"Friday, 20 February at 06:00",+£11,0.7,0.7,-£2,0.6,0.42,+£3,0.8,0.336,+£3,-10,Risky option,Risky option,Risky option,Risky option,Risky option,Risky option,Risky option,Risky option,Risky option,Risky option,Risky option,Safe option,Safe option,Safe option,Safe option,Safe option,Safe option,Safe option,Safe option,Safe option
yedk7nh8,xyh758sk,631610af8e747093cd90e00d,3,3,lottery_12,lo,Raspberry,Pomegranate,9,Safe option,13,5,12,0,,,,,0,0,0,0,,,,,,,,,2026-02-14 09:52:23.621501,1771308000.0,"Tuesday, 17 February at 06:00",1771567200.0,"Friday, 20 February at 06:00",+£11,0.7,0.7,-£2,0.6,0.42,+£3,0.8,0.336,+£3,-10,Risky option,Risky option,Risky option,Risky option,Risky option,Risky option,Risky option,Risky option,Risky option,Risky option,Risky option,Risky option,Safe option,Safe option,Safe option,Safe option,Safe option,Safe option,Safe option,Safe option
yedk7nh8,xyh758sk,631610af8e747093cd90e00d,3,4,lottery_5,hi,Melon,Pomegranate,9,Safe option,14,44,13,-14,2,5,3,15,0,0,0,0,,,,,,,,,2026-02-14 09:52:23.621501,1771308000.0,"Tuesday, 17 February at 06:00",1771567200.0,"Friday, 20 February at 06:00",+£11,0.7,0.7,-£2,0.6,0.42,+£3,0.8,0.336,+£3,-10,Risky option,Risky option,Risky option,Risky option,Risky option,Risky option,Risky option,Risky option,Risky option,Risky option,Risky option,Risky option,Risky option,Safe option,Safe option,Safe option,Safe option,Safe option,Safe option,Safe option
yedk7nh8,xyh758sk,631610af8e747093cd90e00d,3,5,lottery_6,hi,Coconut,Pomegranate,9,Safe option,15,56,14,0,1,9,2,19,0,0,0,0,,,,,,,,,2026-02-14 09:52:23.621501,1771308000.0,"Tuesday, 17 February at 06:00",1771567200.0,"Friday, 20 February at 06:00",+£11,0.7,0.7,-£2,0.6,0.42,+£3,0.8,0.336,+£3,-10,Risky option,Risky option,Risky option,Risky option,Risky option,Risky option,Risky option,Risky option,Risky option,Risky option,Risky option,Risky option,Risky option,Risky option,Safe option,Safe option,Safe option,Safe option,Safe option,Safe option
yedk7nh8,xyh758sk,631610af8e747093cd90e00d,3,6,lottery_3,lo,Orange,Pomegranate,9,Safe option,11,4,10,-2,,,,,0,0,0,0,,,,,,,,,2026-02-14 09:52:23.621501,1771308000.0,"Tuesday, 17 February at 06:00",1771567200.0,"Friday, 20 February at 06:00",+£11,0.7,0.7,-£2,0.6,0.42,+£3,0.8,0.336,+£3,-10,Risky option,Risky option,Risky option,Risky option,Risky option,Risky option,Risky option,Risky option,Risky option,Risky option,Safe option,Safe option,Safe option,Safe option,Safe option,Safe option,Safe option,Safe option,Safe option,Safe option
yedk7nh8,xyh758sk,631610af8e747093cd90e00d,3,7,lottery_13,lo,Fig,Pomegranate,9,Safe option,10,1,9,-3,,,,,0,0,0,0,,,,,,,,,2026-02-14 09:52:23.621501,1771308000.0,"Tuesday, 17 February at 06:00",1771567200.0,"Friday, 20 February at 06:00",+£11,0.7,0.7,-£2,0.6,0.42,+£3,0.8,0.336,+£3,-10,Risky option,Risky option,Risky option,Risky option,Risky option,Risky option,Risky option,Risky option,Risky option,Safe option,Safe option,Safe option,Safe option,Safe option,Safe option,Safe option,Safe option,Safe option,Safe option,Safe option
yedk7nh8,xyh758sk,631610af8e747093cd90e00d,3,8,lottery_9,hi,Durian,Pomegranate,9,Safe option,10,94,9,21,0,21,1,33,0,0,0,0,,,,,,,,,2026-02-14 09:52:23.621501,1771308000.0,"Tuesday, 17 February at 06:00",1771567200.0,"Friday, 20 February at 06:00",+£11,0.7,0.7,-£2,0.6,0.42,+£3,0.8,0.336,+£3,-10,Risky option,Risky option,Risky option,Risky option,Risky option,Risky option,Risky option,Risky option,Risky option,Safe option,Safe option,Safe option,Safe option,Safe option,Safe option,Safe option,Safe option,Safe option,Safe option,Safe option
yedk7nh8,xyh758sk,631610af8e747093cd90e00d,3,9,lottery_10,lo,Pomegranate,Pomegranate,9,Safe option,8,-10,7,-15,,,,,0,0,0,0,,,,,,,,,2026-02-14 09:52:23.621501,1771308000.0,"Tuesday, 17 February at 06:00",1771567200.0,"Friday, 20 February at 06:00",+£11,0.7,0.7,-£2,0.6,0.42,+£3,0.8,0.336,+£3,-10,Risky option,Risky option,Risky option,Risky option,Risky option,Risky option,Risky option,Safe option,Safe option,Safe option,Safe option,Safe option,Safe option,Safe option,Safe option,Safe option,Safe option,Safe option,Safe option,Safe option
yedk7nh8,xyh758sk,631610af8e747093cd90e00d,3,10,lottery_11,lo,Avocado,Pomegranate,9,Safe option,8,-6,7,-10,,,,,0,0,0,0,,,,,,,,,2026-02-14 09:52:23.621501,1771308000.0,"Tuesday, 17 February at 06:00",1771567200.0,"Friday, 20 February at 06:00",+£11,0.7,0.7,-£2,0.6,0.42,+£3,0.8,0.336,+£3,-10,Risky option,Risky option,Risky option,Risky option,Risky option,Risky option,Risky option,Safe option,Safe option,Safe option,Safe option,Safe option,Safe option,Safe option,Safe option,Safe option,Safe option,Safe option,Safe option,Safe option
yedk7nh8,xyh758sk,631610af8e747093cd90e00d,3,11,lottery_1,lo,Apple,Pomegranate,9,Safe option,12,6,11,1,,,,,0,0,0,0,,,,,,,,,2026-02-14 09:52:23.621501,1771308000.0,"Tuesday, 17 February at 06:00",1771567200.0,"Friday, 20 February at 06:00",+£11,0.7,0.7,-£2,0.6,0.42,+£3,0.8,0.336,+£3,-10,Risky option,Risky option,Risky option,Risky option,Risky option,Risky option,Risky option,Risky option,Risky option,Risky option,Risky option,Safe option,Safe option,Safe option,Safe option,Safe option,Safe option,Safe option,Safe option,Safe option
yedk7nh8,xyh758sk,631610af8e747093cd90e00d,3,12,lottery_8,hi,Plum,Pomegranate,9,Safe option,12,-117,11,-226,4,-153,5,-135,0,0,0,0,,,,,,,,,2026-02-14 09:52:23.621501,1771308000.0,"Tuesday, 17 February at 06:00",1771567200.0,"Friday, 20 February at 06:00",+£11,0.7,0.7,-£2,0.6,0.42,+£3,0.8,0.336,+£3,-10,Risky option,Risky option,Risky option,Risky option,Risky option,Risky option,Risky option,Risky option,Risky option,Risky option,Risky option,Safe option,Safe option,Safe option,Safe option,Safe option,Safe option,Safe option,Safe option,Safe option
yedk7nh8,xyh758sk,631610af8e747093cd90e00d,3,13,lottery_7,hi,Dragonfruit,Pomegranate,9,Safe option,13,229,12,132,5,213,6,229,0,0,0,0,,,,,,,,,2026-02-14 09:52:23.621501,1771308000.0,"Tuesday, 17 February at 06:00",1771567200.0,"Friday, 20 February at 06:00",+£11,0.7,0.7,-£2,0.6,0.42,+£3,0.8,0.336,+£3,-10,Risky option,Risky option,Risky option,Risky option,Risky option,Risky option,Risky option,Risky option,Risky option,Risky option,Risky option,Risky option,Safe option,Safe option,Safe option,Safe option,Safe option,Safe option,Safe option,Safe option
yedk7nh8,xyh758sk,631610af8e747093cd90e00d,3,14,lottery_4,hi,Pineapple,Pomegranate,9,Safe option,12,-2,11,-64,5,-12,6,-2,0,0,0,0,,,,,,,,,2026-02-14 09:52:23.621501,1771308000.0,"Tuesday, 17 February at 06:00",1771567200.0,"Friday, 20 February at 06:00",+£11,0.7,0.7,-£2,0.6,0.42,+£3,0.8,0.336,+£3,-10,Risky option,Risky option,Risky option,Risky option,Risky option,Risky option,Risky option,Risky option,Risky option,Risky option,Risky option,Safe option,Safe option,Safe option,Safe option,Safe option,Safe option,Safe option,Safe option,Safe option
yedk7nh8,xyh758sk,631610af8e747093cd90e00d,3,15,lottery_10,lo,Pomegranate,Pomegranate,9,Safe option,16,10,15,7,,,,,0,0,0,0,,,,,,,,,2026-02-14 09:52:23.621501,1771308000.0,"Tuesday, 17 February at 06:00",1771567200.0,"Friday, 20 February at 06:00",+£11,0.7,0.7,-£2,0.6,0.42,+£3,0.8,0.336,+£3,-10,Risky option,Risky option,Risky option,Risky option,Risky option,Risky option,Risky option,Risky option,Risky option,Risky option,Risky option,Risky option,Risky option,Risky option,Risky option,Safe option,Safe option,Safe option,Safe option,Safe option
yedk7nh8,xyh758sk,631610af8e747093cd90e00d,3,16,lottery_10,lo,Pomegranate,Pomegranate,9,Safe option,20,3,19,1,,,,,0,0,0,0,,,,,,A bit complicated,I paid attention throughout the entire study.,"A-levels or equivalent (e.g., BTEC Nationals, T-levels)",2026-02-14 09:52:23.621501,1771308000.0,"Tuesday, 17 February at 06:00",1771567200.0,"Friday, 20 February at 06:00",+£11,0.7,0.7,-£2,0.6,0.42,+£3,0.8,0.336,+£3,-10,Risky option,Risky option,Risky option,Risky option,Risky option,Risky option,Risky option,Risky option,Risky option,Risky option,Risky option,Risky option,Risky option,Risky option,Risky option,Risky option,Risky option,Risky option,Risky option,Safe option
yedk7nh8,m4i2pa2a,61166b2cec63d8ea49e36aac,4,1,lottery_3,lo,Orange,Dragonfruit,6,Safe option,10,-2,9,-7,,,,,0,0,0,0,Yes,No,Yes,Yes,No,,,,2026-02-14 09:52:39.518688,1771308000.0,"Tuesday, 17 February at 06:00",1771567200.0,"Friday, 20 February at 06:00",+£105,0.9,0.9,-£210,1,0.9,+£495,0.7,0.63,+£495,-61,Risky option,Risky option,Risky option,Risky option,Risky option,Risky option,Risky option,Risky option,Risky option,Safe option,Safe option,Safe option,Safe option,Safe option,Safe option,Safe option,Safe option,Safe option,Safe option,Safe option
yedk7nh8,m4i2pa2a,61166b2cec63d8ea49e36aac,4,2,lottery_14,lo,Papaya,Dragonfruit,6,Safe option,10,0,9,-4,,,,,0,0,0,0,,,,,,,,,2026-02-14 09:52:39.518688,1771308000.0,"Tuesday, 17 February at 06:00",1771567200.0,"Friday, 20 February at 06:00",+£105,0.9,0.9,-£210,1,0.9,+£495,0.7,0.63,+£495,-61,Risky option,Risky option,Risky option,Risky option,Risky option,Risky option,Risky option,Risky option,Risky option,Safe option,Safe option,Safe option,Safe option,Safe option,Safe option,Safe option,Safe option,Safe option,Safe option,Safe option
yedk7nh8,m4i2pa2a,61166b2cec63d8ea49e36aac,4,3,lottery_2,lo,Banana,Dragonfruit,6,Safe option,9,0,8,-6,,,,,0,0,0,0,,,,,,,,,2026-02-14 09:52:39.518688,1771308000.0,"Tuesday, 17 February at 06:00",1771567200.0,"Friday, 20 February at 06:00",+£105,0.9,0.9,-£210,1,0.9,+£495,0.7,0.63,+£495,-61,Risky option,Risky option,Risky option,Risky option,Risky option,Risky option,Risky option,Risky option,Safe option,Safe option,Safe option,Safe option,Safe option,Safe option,Safe option,Safe option,Safe option,Safe option,Safe option,Safe option
yedk7nh8,m4i2pa2a,61166b2cec63d8ea49e36aac,4,4,lottery_11,lo,Avocado,Dragonfruit,6,Safe option,9,-2,8,-6,,,,,0,0,0,0,,,,,,,,,2026-02-14 09:52:39.518688,1771308000.0,"Tuesday, 17 February at 06:00",1771567200.0,"Friday, 20 February at 06:00",+£105,0.9,0.9,-£210,1,0.9,+£495,0.7,0.63,+£495,-61,Risky option,Risky option,Risky option,Risky option,Risky option,Risky option,Risky option,Risky option,Safe option,Safe option,Safe option,Safe option,Safe option,Safe option,Safe option,Safe option,Safe option,Safe option,Safe option,Safe option
yedk7nh8,m4i2pa2a,61166b2cec63d8ea49e36aac,4,5,lottery_9,hi,Durian,Dragonfruit,6,Safe option,9,21,8,-51,4,-3,5,9,0,0,0,0,,,,,,,,,2026-02-14 09:52:39.518688,1771308000.0,"Tuesday, 17 February at 06:00",1771567200.0,"Friday, 20 February at 06:00",+£105,0.9,0.9,-£210,1,0.9,+£495,0.7,0.63,+£495,-61,Risky option,Risky option,Risky option,Risky option,Risky option,Risky option,Risky option,Risky option,Safe option,Safe option,Safe option,Safe option,Safe option,Safe option,Safe option,Safe option,Safe option,Safe option,Safe option,Safe option
yedk7nh8,m4i2pa2a,61166b2cec63d8ea49e36aac,4,6,lottery_7,hi,Dragonfruit,Dragonfruit,6,Safe option,10,-61,9,-157,5,-77,6,-61,0,0,0,0,,,,,,,,,2026-02-14 09:52:39.518688,1771308000.0,"Tuesday, 17 February at 06:00",1771567200.0,"Friday, 20 February at 06:00",+£105,0.9,0.9,-£210,1,0.9,+£495,0.7,0.63,+£495,-61,Risky option,Risky option,Risky option,Risky option,Risky option,Risky option,Risky option,Risky option,Risky option,Safe option,Safe option,Safe option,Safe option,Safe option,Safe option,Safe option,Safe option,Safe option,Safe option,Safe option
yedk7nh8,m4i2pa2a,61166b2cec63d8ea49e36aac,4,7,lottery_4,hi,Pineapple,Dragonfruit,6,Safe option,12,-2,11,-64,5,-12,6,-2,0,0,0,0,,,,,,,,,2026-02-14 09:52:39.518688,1771308000.0,"Tuesday, 17 February at 06:00",1771567200.0,"Friday, 20 February at 06:00",+£105,0.9,0.9,-£210,1,0.9,+£495,0.7,0.63,+£495,-61,Risky option,Risky option,Risky option,Risky option,Risky option,Risky option,Risky option,Risky option,Risky option,Risky option,Risky option,Safe option,Safe option,Safe option,Safe option,Safe option,Safe option,Safe option,Safe option,Safe option
yedk7nh8,m4i2pa2a,61166b2cec63d8ea49e36aac,4,8,lottery_1,lo,Apple,Dragonfruit,6,Safe option,11,1,10,-3,,,,,0,0,0,0,,,,,,,,,2026-02-14 09:52:39.518688,1771308000.0,"Tuesday, 17 February at 06:00",1771567200.0,"Friday, 20 February at 06:00",+£105,0.9,0.9,-£210,1,0.9,+£495,0.7,0.63,+£495,-61,Risky option,Risky option,Risky option,Risky option,Risky option,Risky option,Risky option,Risky option,Risky option,Risky option,Safe option,Safe option,Safe option,Safe option,Safe option,Safe option,Safe option,Safe option,Safe option,Safe option
yedk7nh8,m4i2pa2a,61166b2cec63d8ea49e36aac,4,9,lottery_5,hi,Melon,Dragonfruit,6,Safe option,13,-14,12,-72,5,-24,6,-14,0,0,0,0,,,,,,,,,2026-02-14 09:52:39.518688,1771308000.0,"Tuesday, 17 February at 06:00",1771567200.0,"Friday, 20 February at 06:00",+£105,0.9,0.9,-£210,1,0.9,+£495,0.7,0.63,+£495,-61,Risky option,Risky option,Risky option,Risky option,Risky option,Risky option,Risky option,Risky option,Risky option,Risky option,Risky option,Risky option,Safe option,Safe option,Safe option,Safe option,Safe option,Safe option,Safe option,Safe option
yedk7nh8,m4i2pa2a,61166b2cec63d8ea49e36aac,4,10,lottery_6,hi,Coconut,Dragonfruit,6,Safe option,13,-56,12,-111,5,-65,6,-56,0,0,0,0,,,,,,,,,2026-02-14 09:52:39.518688,1771308000.0,"Tuesday, 17 February at 06:00",1771567200.0,"Friday, 20 February at 06:00",+£105,0.9,0.9,-£210,1,0.9,+£495,0.7,0.63,+£495,-61,Risky option,Risky option,Risky option,Risky option,Risky option,Risky option,Risky option,Risky option,Risky option,Risky option,Risky option,Risky option,Safe option,Safe option,Safe option,Safe option,Safe option,Safe option,Safe option,Safe option
yedk7nh8,m4i2pa2a,61166b2cec63d8ea49e36aac,4,11,lottery_10,lo,Pomegranate,Dragonfruit,6,Safe option,10,-1,9,-5,,,,,0,0,0,0,,,,,,,,,2026-02-14 09:52:39.518688,1771308000.0,"Tuesday, 17 February at 06:00",1771567200.0,"Friday, 20 February at 06:00",+£105,0.9,0.9,-£210,1,0.9,+£495,0.7,0.63,+£495,-61,Risky option,Risky option,Risky option,Risky option,Risky option,Risky option,Risky option,Risky option,Risky option,Safe option,Safe option,Safe option,Safe option,Safe option,Safe option,Safe option,Safe option,Safe option,Safe option,Safe option
yedk7nh8,m4i2pa2a,61166b2cec63d8ea49e36aac,4,12,lottery_8,hi,Plum,Dragonfruit,6,Safe option,13,-8,12,-117,5,-26,6,-8,0,0,0,0,,,,,,,,,2026-02-14 09:52:39.518688,1771308000.0,"Tuesday, 17 February at 06:00",1771567200.0,"Friday, 20 February at 06:00",+£105,0.9,0.9,-£210,1,0.9,+£495,0.7,0.63,+£495,-61,Risky option,Risky option,Risky option,Risky option,Risky option,Risky option,Risky option,Risky option,Risky option,Risky option,Risky option,Risky option,Safe option,Safe option,Safe option,Safe option,Safe option,Safe option,Safe option,Safe option
yedk7nh8,m4i2pa2a,61166b2cec63d8ea49e36aac,4,13,lottery_12,lo,Raspberry,Dragonfruit,6,Safe option,12,0,11,-4,,,,,0,0,0,0,,,,,,,,,2026-02-14 09:52:39.518688,1771308000.0,"Tuesday, 17 February at 06:00",1771567200.0,"Friday, 20 February at 06:00",+£105,0.9,0.9,-£210,1,0.9,+£495,0.7,0.63,+£495,-61,Risky option,Risky option,Risky option,Risky option,Risky option,Risky option,Risky option,Risky option,Risky option,Risky option,Risky option,Safe option,Safe option,Safe option,Safe option,Safe option,Safe option,Safe option,Safe option,Safe option
yedk7nh8,m4i2pa2a,61166b2cec63d8ea49e36aac,4,14,lottery_13,lo,Fig,Dragonfruit,6,Safe option,9,-3,8,-8,,,,,0,0,0,0,,,,,,,,,2026-02-14 09:52:39.518688,1771308000.0,"Tuesday, 17 February at 06:00",1771567200.0,"Friday, 20 February at 06:00",+£105,0.9,0.9,-£210,1,0.9,+£495,0.7,0.63,+£495,-61,Risky option,Risky option,Risky option,Risky option,Risky option,Risky option,Risky option,Risky option,Safe option,Safe option,Safe option,Safe option,Safe option,Safe option,Safe option,Safe option,Safe option,Safe option,Safe option,Safe option
yedk7nh8,m4i2pa2a,61166b2cec63d8ea49e36aac,4,15,lottery_7,hi,Dragonfruit,Dragonfruit,6,Safe option,15,-62,14,-132,5,-74,6,-62,0,0,0,0,,,,,,,,,2026-02-14 09:52:39.518688,1771308000.0,"Tuesday, 17 February at 06:00",1771567200.0,"Friday, 20 February at 06:00",+£105,0.9,0.9,-£210,1,0.9,+£495,0.7,0.63,+£495,-61,Risky option,Risky option,Risky option,Risky option,Risky option,Risky option,Risky option,Risky option,Risky option,Risky option,Risky option,Risky option,Risky option,Risky option,Safe option,Safe option,Safe option,Safe option,Safe option,Safe option
yedk7nh8,m4i2pa2a,61166b2cec63d8ea49e36aac,4,16,lottery_7,hi,Dragonfruit,Dragonfruit,6,Safe option,12,-61,11,-130,5,-72,6,-61,0,0,0,0,,,,,,A bit complicated,I paid attention throughout the entire study.,"Master's degree or equivalent (e.g., MA, MSc, MRes, MBA)",2026-02-14 09:52:39.518688,1771308000.0,"Tuesday, 17 February at 06:00",1771567200.0,"Friday, 20 February at 06:00",+£105,0.9,0.9,-£210,1,0.9,+£495,0.7,0.63,+£495,-61,Risky option,Risky option,Risky option,Risky option,Risky option,Risky option,Risky option,Risky option,Risky option,Risky option,Risky option,Safe option,Safe option,Safe option,Safe option,Safe option,Safe option,Safe option,Safe option,Safe option
yedk7nh8,zkhiqcpl,66c347304e6dd11def71183e,5,1,lottery_3,lo,Orange,Pineapple,3,Safe option,20,49,19,44,,,,,1,0,0,0,Yes,No,Yes,Yes,No,,,,2026-02-14 09:52:51.612998,1771308000.0,"Tuesday, 17 February at 06:00",1771567200.0,"Friday, 20 February at 06:00",+£110,0.9,0.9,-£145,1,0.9,+£530,0.6,0.54,+£530,495,Risky option,Risky option,Risky option,Risky option,Risky option,Risky option,Risky option,Risky option,Risky option,Risky option,Risky option,Risky option,Risky option,Risky option,Risky option,Risky option,Risky option,Risky option,Risky option,Safe option
yedk7nh8,zkhiqcpl,66c347304e6dd11def71183e,5,2,lottery_2,lo,Banana,Pineapple,3,Safe option,19,55,18,50,,,,,0,0,0,0,,,,,,,,,2026-02-14 09:52:51.612998,1771308000.0,"Tuesday, 17 February at 06:00",1771567200.0,"Friday, 20 February at 06:00",+£110,0.9,0.9,-£145,1,0.9,+£530,0.6,0.54,+£530,495,Risky option,Risky option,Risky option,Risky option,Risky option,Risky option,Risky option,Risky option,Risky option,Risky option,Risky option,Risky option,Risky option,Risky option,Risky option,Risky option,Risky option,Risky option,Safe option,Safe option
yedk7nh8,zkhiqcpl,66c347304e6dd11def71183e,5,3,lottery_4,hi,Pineapple,Pineapple,3,Safe option,20,495,19,433,5,485,6,495,0,0,0,0,,,,,,,,,2026-02-14 09:52:51.612998,1771308000.0,"Tuesday, 17 February at 06:00",1771567200.0,"Friday, 20 February at 06:00",+£110,0.9,0.9,-£145,1,0.9,+£530,0.6,0.54,+£530,495,Risky option,Risky option,Risky option,Risky option,Risky option,Risky option,Risky option,Risky option,Risky option,Risky option,Risky option,Risky option,Risky option,Risky option,Risky option,Risky option,Risky option,Risky option,Risky option,Safe option
yedk7nh8,zkhiqcpl,66c347304e6dd11def71183e,5,4,lottery_12,lo,Raspberry,Pineapple,3,Safe option,19,32,18,27,,,,,0,0,0,0,,,,,,,,,2026-02-14 09:52:51.612998,1771308000.0,"Tuesday, 17 February at 06:00",1771567200.0,"Friday, 20 February at 06:00",+£110,0.9,0.9,-£145,1,0.9,+£530,0.6,0.54,+£530,495,Risky option,Risky option,Risky option,Risky option,Risky option,Risky option,Risky option,Risky option,Risky option,Risky option,Risky option,Risky option,Risky option,Risky option,Risky option,Risky option,Risky option,Risky option,Safe option,Safe option
yedk7nh8,zkhiqcpl,66c347304e6dd11def71183e,5,5,lottery_10,lo,Pomegranate,Pineapple,3,Safe option,18,36,17,31,,,,,0,0,0,0,,,,,,,,,2026-02-14 09:52:51.612998,1771308000.0,"Tuesday, 17 February at 06:00",1771567200.0,"Friday, 20 February at 06:00",+£110,0.9,0.9,-£145,1,0.9,+£530,0.6,0.54,+£530,495,Risky option,Risky option,Risky option,Risky option,Risky option,Risky option,Risky option,Risky option,Risky option,Risky option,Risky option,Risky option,Risky option,Risky option,Risky option,Risky option,Risky option,Safe option,Safe option,Safe option
yedk7nh8,zkhiqcpl,66c347304e6dd11def71183e,5,6,lottery_8,hi,Plum,Pineapple,3,Safe option,19,646,18,537,4,610,5,628,0,0,0,0,,,,,,,,,2026-02-14 09:52:51.612998,1771308000.0,"Tuesday, 17 February at 06:00",1771567200.0,"Friday, 20 February at 06:00",+£110,0.9,0.9,-£145,1,0.9,+£530,0.6,0.54,+£530,495,Risky option,Risky option,Risky option,Risky option,Risky option,Risky option,Risky option,Risky option,Risky option,Risky option,Risky option,Risky option,Risky option,Risky option,Risky option,Risky option,Risky option,Risky option,Safe option,Safe option
yedk7nh8,zkhiqcpl,66c347304e6dd11def71183e,5,7,lottery_1,lo,Apple,Pineapple,3,Safe option,19,39,18,35,,,,,0,0,0,0,,,,,,,,,2026-02-14 09:52:51.612998,1771308000.0,"Tuesday, 17 February at 06:00",1771567200.0,"Friday, 20 February at 06:00",+£110,0.9,0.9,-£145,1,0.9,+£530,0.6,0.54,+£530,495,Risky option,Risky option,Risky option,Risky option,Risky option,Risky option,Risky option,Risky option,Risky option,Risky option,Risky option,Risky option,Risky option,Risky option,Risky option,Risky option,Risky option,Risky option,Safe option,Safe option
yedk7nh8,zkhiqcpl,66c347304e6dd11def71183e,5,8,lottery_5,hi,Melon,Pineapple,3,Safe option,20,395,19,337,3,366,4,376,0,0,0,0,,,,,,,,,2026-02-14 09:52:51.612998,1771308000.0,"Tuesday, 17 February at 06:00",1771567200.0,"Friday, 20 February at 06:00",+£110,0.9,0.9,-£145,1,0.9,+£530,0.6,0.54,+£530,495,Risky option,Risky option,Risky option,Risky option,Risky option,Risky option,Risky option,Risky option,Risky option,Risky option,Risky option,Risky option,Risky option,Risky option,Risky option,Risky option,Risky option,Risky option,Risky option,Safe option
yedk7nh8,zkhiqcpl,66c347304e6dd11def71183e,5,9,lottery_14,lo,Papaya,Pineapple,3,Safe option,19,40,18,35,,,,,0,0,0,0,,,,,,,,,2026-02-14 09:52:51.612998,1771308000.0,"Tuesday, 17 February at 06:00",1771567200.0,"Friday, 20 February at 06:00",+£110,0.9,0.9,-£145,1,0.9,+£530,0.6,0.54,+£530,495,Risky option,Risky option,Risky option,Risky option,Risky option,Risky option,Risky option,Risky option,Risky option,Risky option,Risky option,Risky option,Risky option,Risky option,Risky option,Risky option,Risky option,Risky option,Safe option,Safe option
yedk7nh8,zkhiqcpl,66c347304e6dd11def71183e,5,10,lottery_13,lo,Fig,Pineapple,3,Safe option,19,42,18,38,,,,,0,0,0,0,,,,,,,,,2026-02-14 09:52:51.612998,1771308000.0,"Tuesday, 17 February at 06:00",1771567200.0,"Friday, 20 February at 06:00",+£110,0.9,0.9,-£145,1,0.9,+£530,0.6,0.54,+£530,495,Risky option,Risky option,Risky option,Risky option,Risky option,Risky option,Risky option,Risky option,Risky option,Risky option,Risky option,Risky option,Risky option,Risky option,Risky option,Risky option,Risky option,Risky option,Safe option,Safe option
yedk7nh8,zkhiqcpl,66c347304e6dd11def71183e,5,11,lottery_6,hi,Coconut,Pineapple,3,Safe option,19,279,18,223,3,251,4,260,0,0,0,0,,,,,,,,,2026-02-14 09:52:51.612998,1771308000.0,"Tuesday, 17 February at 06:00",1771567200.0,"Friday, 20 February at 06:00",+£110,0.9,0.9,-£145,1,0.9,+£530,0.6,0.54,+£530,495,Risky option,Risky option,Risky option,Risky option,Risky option,Risky option,Risky option,Risky option,Risky option,Risky option,Risky option,Risky option,Risky option,Risky option,Risky option,Risky option,Risky option,Risky option,Safe option,Safe option
yedk7nh8,zkhiqcpl,66c347304e6dd11def71183e,5,12,lottery_7,hi,Dragonfruit,Pineapple,3,Safe option,20,905,19,808,4,873,5,889,0,0,0,0,,,,,,,,,2026-02-14 09:52:51.612998,1771308000.0,"Tuesday, 17 February at 06:00",1771567200.0,"Friday, 20 February at 06:00",+£110,0.9,0.9,-£145,1,0.9,+£530,0.6,0.54,+£530,495,Risky option,Risky option,Risky option,Risky option,Risky option,Risky option,Risky option,Risky option,Risky option,Risky option,Risky option,Risky option,Risky option,Risky option,Risky option,Risky option,Risky option,Risky option,Risky option,Safe option
yedk7nh8,zkhiqcpl,66c347304e6dd11def71183e,5,13,lottery_9,hi,Durian,Pineapple,3,Safe option,19,748,18,676,3,712,4,724,0,0,0,0,,,,,,,,,2026-02-14 09:52:51.612998,1771308000.0,"Tuesday, 17 February at 06:00",1771567200.0,"Friday, 20 February at 06:00",+£110,0.9,0.9,-£145,1,0.9,+£530,0.6,0.54,+£530,495,Risky option,Risky option,Risky option,Risky option,Risky option,Risky option,Risky option,Risky option,Risky option,Risky option,Risky option,Risky option,Risky option,Risky option,Risky option,Risky option,Risky option,Risky option,Safe option,Safe option
yedk7nh8,zkhiqcpl,66c347304e6dd11def71183e,5,14,lottery_11,lo,Avocado,Pineapple,3,Safe option,20,42,19,38,,,,,0,0,0,0,,,,,,,,,2026-02-14 09:52:51.612998,1771308000.0,"Tuesday, 17 February at 06:00",1771567200.0,"Friday, 20 February at 06:00",+£110,0.9,0.9,-£145,1,0.9,+£530,0.6,0.54,+£530,495,Risky option,Risky option,Risky option,Risky option,Risky option,Risky option,Risky option,Risky option,Risky option,Risky option,Risky option,Risky option,Risky option,Risky option,Risky option,Risky option,Risky option,Risky option,Risky option,Safe option
yedk7nh8,zkhiqcpl,66c347304e6dd11def71183e,5,15,lottery_4,hi,Pineapple,Pineapple,3,Safe option,19,324,18,263,3,294,4,304,0,0,0,0,,,,,,,,,2026-02-14 09:52:51.612998,1771308000.0,"Tuesday, 17 February at 06:00",1771567200.0,"Friday, 20 February at 06:00",+£110,0.9,0.9,-£145,1,0.9,+£530,0.6,0.54,+£530,495,Risky option,Risky option,Risky option,Risky option,Risky option,Risky option,Risky option,Risky option,Risky option,Risky option,Risky option,Risky option,Risky option,Risky option,Risky option,Risky option,Risky option,Risky option,Safe option,Safe option
yedk7nh8,zkhiqcpl,66c347304e6dd11def71183e,5,16,lottery_4,hi,Pineapple,Pineapple,3,Safe option,2,-564,1,-625,1,-615,2,-605,0,0,0,0,,,,,,Very complicated,I paid attention throughout the entire study.,"Bachelor's degree or equivalent (e.g., BA, BSc, HND, HNC, foundation degree)",2026-02-14 09:52:51.612998,1771308000.0,"Tuesday, 17 February at 06:00",1771567200.0,"Friday, 20 February at 06:00",+£110,0.9,0.9,-£145,1,0.9,+£530,0.6,0.54,+£530,495,Risky option,Safe option,Safe option,Safe option,Safe option,Safe option,Safe option,Safe option,Safe option,Safe option,Safe option,Safe option,Safe option,Safe option,Safe option,Safe option,Safe option,Safe option,Safe option,Safe option
yedk7nh8,jy51gid3,69722ac00c49f0720d607948,6,1,lottery_3,lo,Orange,Avocado,14,Safe option,13,14,12,9,,,,,0,0,0,0,Yes,No,Yes,Yes,No,,,,2026-02-14 09:53:22.063485,1771308000.0,"Tuesday, 17 February at 06:00",1771567200.0,"Friday, 20 February at 06:00",+£5,0.9,0.9,+£6,0.7,0.63,+£31,0.4,0.252,+£31,14,Risky option,Risky option,Risky option,Risky option,Risky option,Risky option,Risky option,Risky option,Risky option,Risky option,Risky option,Risky option,Safe option,Safe option,Safe option,Safe option,Safe option,Safe option,Safe option,Safe option
yedk7nh8,jy51gid3,69722ac00c49f0720d607948,6,2,lottery_13,lo,Fig,Avocado,14,Safe option,12,10,11,6,,,,,0,0,0,0,,,,,,,,,2026-02-14 09:53:22.063485,1771308000.0,"Tuesday, 17 February at 06:00",1771567200.0,"Friday, 20 February at 06:00",+£5,0.9,0.9,+£6,0.7,0.63,+£31,0.4,0.252,+£31,14,Risky option,Risky option,Risky option,Risky option,Risky option,Risky option,Risky option,Risky option,Risky option,Risky option,Risky option,Safe option,Safe option,Safe option,Safe option,Safe option,Safe option,Safe option,Safe option,Safe option
yedk7nh8,jy51gid3,69722ac00c49f0720d607948,6,3,lottery_1,lo,Apple,Avocado,14,Safe option,13,11,12,6,,,,,0,0,0,0,,,,,,,,,2026-02-14 09:53:22.063485,1771308000.0,"Tuesday, 17 February at 06:00",1771567200.0,"Friday, 20 February at 06:00",+£5,0.9,0.9,+£6,0.7,0.63,+£31,0.4,0.252,+£31,14,Risky option,Risky option,Risky option,Risky option,Risky option,Risky option,Risky option,Risky option,Risky option,Risky option,Risky option,Risky option,Safe option,Safe option,Safe option,Safe option,Safe option,Safe option,Safe option,Safe option
yedk7nh8,jy51gid3,69722ac00c49f0720d607948,6,4,lottery_14,lo,Papaya,Avocado,14,Safe option,13,13,12,9,,,,,0,0,0,0,,,,,,,,,2026-02-14 09:53:22.063485,1771308000.0,"Tuesday, 17 February at 06:00",1771567200.0,"Friday, 20 February at 06:00",+£5,0.9,0.9,+£6,0.7,0.63,+£31,0.4,0.252,+£31,14,Risky option,Risky option,Risky option,Risky option,Risky option,Risky option,Risky option,Risky option,Risky option,Risky option,Risky option,Risky option,Safe option,Safe option,Safe option,Safe option,Safe option,Safe option,Safe option,Safe option
yedk7nh8,jy51gid3,69722ac00c49f0720d607948,6,5,lottery_4,hi,Pineapple,Avocado,14,Safe option,13,60,12,-2,0,-2,1,8,0,0,0,0,,,,,,,,,2026-02-14 09:53:22.063485,1771308000.0,"Tuesday, 17 February at 06:00",1771567200.0,"Friday, 20 February at 06:00",+£5,0.9,0.9,+£6,0.7,0.63,+£31,0.4,0.252,+£31,14,Risky option,Risky option,Risky option,Risky option,Risky option,Risky option,Risky option,Risky option,Risky option,Risky option,Risky option,Risky option,Safe option,Safe option,Safe option,Safe option,Safe option,Safe option,Safe option,Safe option
yedk7nh8,jy51gid3,69722ac00c49f0720d607948,6,6,lottery_10,lo,Pomegranate,Avocado,14,Safe option,12,8,11,4,,,,,0,0,0,0,,,,,,,,,2026-02-14 09:53:22.063485,1771308000.0,"Tuesday, 17 February at 06:00",1771567200.0,"Friday, 20 February at 06:00",+£5,0.9,0.9,+£6,0.7,0.63,+£31,0.4,0.252,+£31,14,Risky option,Risky option,Risky option,Risky option,Risky option,Risky option,Risky option,Risky option,Risky option,Risky option,Risky option,Safe option,Safe option,Safe option,Safe option,Safe option,Safe option,Safe option,Safe option,Safe option
yedk7nh8,jy51gid3,69722ac00c49f0720d607948,6,7,lottery_12,lo,Raspberry,Avocado,14,Safe option,15,14,14,9,,,,,0,0,0,0,,,,,,,,,2026-02-14 09:53:22.063485,1771308000.0,"Tuesday, 17 February at 06:00",1771567200.0,"Friday, 20 February at 06:00",+£5,0.9,0.9,+£6,0.7,0.63,+£31,0.4,0.252,+£31,14,Risky option,Risky option,Risky option,Risky option,Risky option,Risky option,Risky option,Risky option,Risky option,Risky option,Risky option,Risky option,Risky option,Risky option,Safe option,Safe option,Safe option,Safe option,Safe option,Safe option
yedk7nh8,jy51gid3,69722ac00c49f0720d607948,6,8,lottery_5,hi,Melon,Avocado,14,Safe option,13,-14,12,-72,5,-24,6,-14,0,0,0,0,,,,,,,,,2026-02-14 09:53:22.063485,1771308000.0,"Tuesday, 17 February at 06:00",1771567200.0,"Friday, 20 February at 06:00",+£5,0.9,0.9,+£6,0.7,0.63,+£31,0.4,0.252,+£31,14,Risky option,Risky option,Risky option,Risky option,Risky option,Risky option,Risky option,Risky option,Risky option,Risky option,Risky option,Risky option,Safe option,Safe option,Safe option,Safe option,Safe option,Safe option,Safe option,Safe option
yedk7nh8,jy51gid3,69722ac00c49f0720d607948,6,9,lottery_8,hi,Plum,Avocado,14,Safe option,12,-117,11,-226,5,-135,6,-117,0,0,0,0,,,,,,,,,2026-02-14 09:53:22.063485,1771308000.0,"Tuesday, 17 February at 06:00",1771567200.0,"Friday, 20 February at 06:00",+£5,0.9,0.9,+£6,0.7,0.63,+£31,0.4,0.252,+£31,14,Risky option,Risky option,Risky option,Risky option,Risky option,Risky option,Risky option,Risky option,Risky option,Risky option,Risky option,Safe option,Safe option,Safe option,Safe option,Safe option,Safe option,Safe option,Safe option,Safe option
yedk7nh8,jy51gid3,69722ac00c49f0720d607948,6,10,lottery_7,hi,Dragonfruit,Avocado,14,Safe option,11,36,10,-61,1,-45,2,-29,0,0,0,0,,,,,,,,,2026-02-14 09:53:22.063485,1771308000.0,"Tuesday, 17 February at 06:00",1771567200.0,"Friday, 20 February at 06:00",+£5,0.9,0.9,+£6,0.7,0.63,+£31,0.4,0.252,+£31,14,Risky option,Risky option,Risky option,Risky option,Risky option,Risky option,Risky option,Risky option,Risky option,Risky option,Safe option,Safe option,Safe option,Safe option,Safe option,Safe option,Safe option,Safe option,Safe option,Safe option
yedk7nh8,jy51gid3,69722ac00c49f0720d607948,6,11,lottery_9,hi,Durian,Avocado,14,Safe option,8,-51,7,-124,3,-88,4,-75,0,0,0,0,,,,,,,,,2026-02-14 09:53:22.063485,1771308000.0,"Tuesday, 17 February at 06:00",1771567200.0,"Friday, 20 February at 06:00",+£5,0.9,0.9,+£6,0.7,0.63,+£31,0.4,0.252,+£31,14,Risky option,Risky option,Risky option,Risky option,Risky option,Risky option,Risky option,Safe option,Safe option,Safe option,Safe option,Safe option,Safe option,Safe option,Safe option,Safe option,Safe option,Safe option,Safe option,Safe option
yedk7nh8,jy51gid3,69722ac00c49f0720d607948,6,12,lottery_2,lo,Banana,Avocado,14,Safe option,13,22,12,16,,,,,0,0,0,0,,,,,,,,,2026-02-14 09:53:22.063485,1771308000.0,"Tuesday, 17 February at 06:00",1771567200.0,"Friday, 20 February at 06:00",+£5,0.9,0.9,+£6,0.7,0.63,+£31,0.4,0.252,+£31,14,Risky option,Risky option,Risky option,Risky option,Risky option,Risky option,Risky option,Risky option,Risky option,Risky option,Risky option,Risky option,Safe option,Safe option,Safe option,Safe option,Safe option,Safe option,Safe option,Safe option
yedk7nh8,jy51gid3,69722ac00c49f0720d607948,6,13,lottery_6,hi,Coconut,Avocado,14,Safe option,15,56,14,0,5,47,6,56,0,0,0,0,,,,,,,,,2026-02-14 09:53:22.063485,1771308000.0,"Tuesday, 17 February at 06:00",1771567200.0,"Friday, 20 February at 06:00",+£5,0.9,0.9,+£6,0.7,0.63,+£31,0.4,0.252,+£31,14,Risky option,Risky option,Risky option,Risky option,Risky option,Risky option,Risky option,Risky option,Risky option,Risky option,Risky option,Risky option,Risky option,Risky option,Safe option,Safe option,Safe option,Safe option,Safe option,Safe option
yedk7nh8,jy51gid3,69722ac00c49f0720d607948,6,14,lottery_11,lo,Avocado,Avocado,14,Safe option,13,14,12,10,,,,,0,0,0,0,,,,,,,,,2026-02-14 09:53:22.063485,1771308000.0,"Tuesday, 17 February at 06:00",1771567200.0,"Friday, 20 February at 06:00",+£5,0.9,0.9,+£6,0.7,0.63,+£31,0.4,0.252,+£31,14,Risky option,Risky option,Risky option,Risky option,Risky option,Risky option,Risky option,Risky option,Risky option,Risky option,Risky option,Risky option,Safe option,Safe option,Safe option,Safe option,Safe option,Safe option,Safe option,Safe option
yedk7nh8,jy51gid3,69722ac00c49f0720d607948,6,15,lottery_11,lo,Avocado,Avocado,14,Safe option,10,0,9,-4,,,,,0,0,0,0,,,,,,,,,2026-02-14 09:53:22.063485,1771308000.0,"Tuesday, 17 February at 06:00",1771567200.0,"Friday, 20 February at 06:00",+£5,0.9,0.9,+£6,0.7,0.63,+£31,0.4,0.252,+£31,14,Risky option,Risky option,Risky option,Risky option,Risky option,Risky option,Risky option,Risky option,Risky option,Safe option,Safe option,Safe option,Safe option,Safe option,Safe option,Safe option,Safe option,Safe option,Safe option,Safe option
yedk7nh8,jy51gid3,69722ac00c49f0720d607948,6,16,lottery_11,lo,Avocado,Avocado,14,Safe option,11,-2,10,-5,,,,,0,0,0,0,,,,,,Not complicated at all,I paid attention throughout the entire study.,"Doctorate or equivalent (e.g., PhD, DPhil, EdD)",2026-02-14 09:53:22.063485,1771308000.0,"Tuesday, 17 February at 06:00",1771567200.0,"Friday, 20 February at 06:00",+£5,0.9,0.9,+£6,0.7,0.63,+£31,0.4,0.252,+£31,14,Risky option,Risky option,Risky option,Risky option,Risky option,Risky option,Risky option,Risky option,Risky option,Risky option,Safe option,Safe option,Safe option,Safe option,Safe option,Safe option,Safe option,Safe option,Safe option,Safe option
yedk7nh8,6nvhbqu7,5d2db62ac45885001abf9ce3,7,1,lottery_1,lo,Apple,Raspberry,4,Safe option,3,-37,2,-41,,,,,1,0,0,0,Yes,No,Yes,Yes,No,,,,2026-02-14 09:53:29.630632,1771308000.0,"Tuesday, 17 February at 06:00",1771567200.0,"Friday, 20 February at 06:00",+£13,0.9,0.9,+£2,0.7,0.63,-£43,0.5,0.315,-£43,-22,Risky option,Risky option,Safe option,Safe option,Safe option,Safe option,Safe option,Safe option,Safe option,Safe option,Safe option,Safe option,Safe option,Safe option,Safe option,Safe option,Safe option,Safe option,Safe option,Safe option
yedk7nh8,6nvhbqu7,5d2db62ac45885001abf9ce3,7,2,lottery_2,lo,Banana,Raspberry,4,Safe option,4,-28,3,-34,,,,,0,0,0,0,,,,,,,,,2026-02-14 09:53:29.630632,1771308000.0,"Tuesday, 17 February at 06:00",1771567200.0,"Friday, 20 February at 06:00",+£13,0.9,0.9,+£2,0.7,0.63,-£43,0.5,0.315,-£43,-22,Risky option,Risky option,Risky option,Safe option,Safe option,Safe option,Safe option,Safe option,Safe option,Safe option,Safe option,Safe option,Safe option,Safe option,Safe option,Safe option,Safe option,Safe option,Safe option,Safe option
yedk7nh8,6nvhbqu7,5d2db62ac45885001abf9ce3,7,3,lottery_5,hi,Melon,Raspberry,4,Safe option,8,-306,7,-364,2,-345,3,-335,0,0,0,0,,,,,,,,,2026-02-14 09:53:29.630632,1771308000.0,"Tuesday, 17 February at 06:00",1771567200.0,"Friday, 20 February at 06:00",+£13,0.9,0.9,+£2,0.7,0.63,-£43,0.5,0.315,-£43,-22,Risky option,Risky option,Risky option,Risky option,Risky option,Risky option,Risky option,Safe option,Safe option,Safe option,Safe option,Safe option,Safe option,Safe option,Safe option,Safe option,Safe option,Safe option,Safe option,Safe option
yedk7nh8,6nvhbqu7,5d2db62ac45885001abf9ce3,7,4,lottery_12,lo,Raspberry,Raspberry,4,Safe option,7,-22,6,-27,,,,,0,0,0,0,,,,,,,,,2026-02-14 09:53:29.630632,1771308000.0,"Tuesday, 17 February at 06:00",1771567200.0,"Friday, 20 February at 06:00",+£13,0.9,0.9,+£2,0.7,0.63,-£43,0.5,0.315,-£43,-22,Risky option,Risky option,Risky option,Risky option,Risky option,Risky option,Safe option,Safe option,Safe option,Safe option,Safe option,Safe option,Safe option,Safe option,Safe option,Safe option,Safe option,Safe option,Safe option,Safe option
yedk7nh8,6nvhbqu7,5d2db62ac45885001abf9ce3,7,5,lottery_3,lo,Orange,Raspberry,4,Safe option,7,-17,6,-22,,,,,0,0,0,0,,,,,,,,,2026-02-14 09:53:29.630632,1771308000.0,"Tuesday, 17 February at 06:00",1771567200.0,"Friday, 20 February at 06:00",+£13,0.9,0.9,+£2,0.7,0.63,-£43,0.5,0.315,-£43,-22,Risky option,Risky option,Risky option,Risky option,Risky option,Risky option,Safe option,Safe option,Safe option,Safe option,Safe option,Safe option,Safe option,Safe option,Safe option,Safe option,Safe option,Safe option,Safe option,Safe option
yedk7nh8,6nvhbqu7,5d2db62ac45885001abf9ce3,7,6,lottery_13,lo,Fig,Raspberry,4,Safe option,4,-26,3,-31,,,,,0,0,0,0,,,,,,,,,2026-02-14 09:53:29.630632,1771308000.0,"Tuesday, 17 February at 06:00",1771567200.0,"Friday, 20 February at 06:00",+£13,0.9,0.9,+£2,0.7,0.63,-£43,0.5,0.315,-£43,-22,Risky option,Risky option,Risky option,Safe option,Safe option,Safe option,Safe option,Safe option,Safe option,Safe option,Safe option,Safe option,Safe option,Safe option,Safe option,Safe option,Safe option,Safe option,Safe option,Safe option
yedk7nh8,6nvhbqu7,5d2db62ac45885001abf9ce3,7,7,lottery_10,lo,Pomegranate,Raspberry,4,Safe option,5,-24,4,-28,,,,,0,0,0,0,,,,,,,,,2026-02-14 09:53:29.630632,1771308000.0,"Tuesday, 17 February at 06:00",1771567200.0,"Friday, 20 February at 06:00",+£13,0.9,0.9,+£2,0.7,0.63,-£43,0.5,0.315,-£43,-22,Risky option,Risky option,Risky option,Risky option,Safe option,Safe option,Safe option,Safe option,Safe option,Safe option,Safe option,Safe option,Safe option,Safe option,Safe option,Safe option,Safe option,Safe option,Safe option,Safe option
yedk7nh8,6nvhbqu7,5d2db62ac45885001abf9ce3,7,8,lottery_4,hi,Pineapple,Raspberry,4,Safe option,5,-437,4,-499,3,-468,4,-458,0,0,0,0,,,,,,,,,2026-02-14 09:53:29.630632,1771308000.0,"Tuesday, 17 February at 06:00",1771567200.0,"Friday, 20 February at 06:00",+£13,0.9,0.9,+£2,0.7,0.63,-£43,0.5,0.315,-£43,-22,Risky option,Risky option,Risky option,Risky option,Safe option,Safe option,Safe option,Safe option,Safe option,Safe option,Safe option,Safe option,Safe option,Safe option,Safe option,Safe option,Safe option,Safe option,Safe option,Safe option
yedk7nh8,6nvhbqu7,5d2db62ac45885001abf9ce3,7,9,lottery_6,hi,Coconut,Raspberry,4,Safe option,8,-334,7,-390,4,-353,5,-343,0,0,0,0,,,,,,,,,2026-02-14 09:53:29.630632,1771308000.0,"Tuesday, 17 February at 06:00",1771567200.0,"Friday, 20 February at 06:00",+£13,0.9,0.9,+£2,0.7,0.63,-£43,0.5,0.315,-£43,-22,Risky option,Risky option,Risky option,Risky option,Risky option,Risky option,Risky option,Safe option,Safe option,Safe option,Safe option,Safe option,Safe option,Safe option,Safe option,Safe option,Safe option,Safe option,Safe option,Safe option
yedk7nh8,6nvhbqu7,5d2db62ac45885001abf9ce3,7,10,lottery_9,hi,Durian,Raspberry,4,Safe option,6,-197,5,-269,4,-221,5,-209,0,0,0,0,,,,,,,,,2026-02-14 09:53:29.630632,1771308000.0,"Tuesday, 17 February at 06:00",1771567200.0,"Friday, 20 February at 06:00",+£13,0.9,0.9,+£2,0.7,0.63,-£43,0.5,0.315,-£43,-22,Risky option,Risky option,Risky option,Risky option,Risky option,Safe option,Safe option,Safe option,Safe option,Safe option,Safe option,Safe option,Safe option,Safe option,Safe option,Safe option,Safe option,Safe option,Safe option,Safe option
yedk7nh8,6nvhbqu7,5d2db62ac45885001abf9ce3,7,11,lottery_7,hi,Dragonfruit,Raspberry,4,Safe option,3,-737,2,-833,2,-801,3,-785,0,0,0,0,,,,,,,,,2026-02-14 09:53:29.630632,1771308000.0,"Tuesday, 17 February at 06:00",1771567200.0,"Friday, 20 February at 06:00",+£13,0.9,0.9,+£2,0.7,0.63,-£43,0.5,0.315,-£43,-22,Risky option,Risky option,Safe option,Safe option,Safe option,Safe option,Safe option,Safe option,Safe option,Safe option,Safe option,Safe option,Safe option,Safe option,Safe option,Safe option,Safe option,Safe option,Safe option,Safe option
yedk7nh8,6nvhbqu7,5d2db62ac45885001abf9ce3,7,12,lottery_8,hi,Plum,Raspberry,4,Safe option,4,-988,3,-1097,2,-1061,3,-1042,0,0,0,0,,,,,,,,,2026-02-14 09:53:29.630632,1771308000.0,"Tuesday, 17 February at 06:00",1771567200.0,"Friday, 20 February at 06:00",+£13,0.9,0.9,+£2,0.7,0.63,-£43,0.5,0.315,-£43,-22,Risky option,Risky option,Risky option,Safe option,Safe option,Safe option,Safe option,Safe option,Safe option,Safe option,Safe option,Safe option,Safe option,Safe option,Safe option,Safe option,Safe option,Safe option,Safe option,Safe option
yedk7nh8,6nvhbqu7,5d2db62ac45885001abf9ce3,7,13,lottery_11,lo,Avocado,Raspberry,4,Safe option,4,-22,3,-26,,,,,0,0,0,0,,,,,,,,,2026-02-14 09:53:29.630632,1771308000.0,"Tuesday, 17 February at 06:00",1771567200.0,"Friday, 20 February at 06:00",+£13,0.9,0.9,+£2,0.7,0.63,-£43,0.5,0.315,-£43,-22,Risky option,Risky option,Risky option,Safe option,Safe option,Safe option,Safe option,Safe option,Safe option,Safe option,Safe option,Safe option,Safe option,Safe option,Safe option,Safe option,Safe option,Safe option,Safe option,Safe option
yedk7nh8,6nvhbqu7,5d2db62ac45885001abf9ce3,7,14,lottery_14,lo,Papaya,Raspberry,4,Safe option,5,-22,4,-26,,,,,0,0,0,0,,,,,,,,,2026-02-14 09:53:29.630632,1771308000.0,"Tuesday, 17 February at 06:00",1771567200.0,"Friday, 20 February at 06:00",+£13,0.9,0.9,+£2,0.7,0.63,-£43,0.5,0.315,-£43,-22,Risky option,Risky option,Risky option,Risky option,Safe option,Safe option,Safe option,Safe option,Safe option,Safe option,Safe option,Safe option,Safe option,Safe option,Safe option,Safe option,Safe option,Safe option,Safe option,Safe option
yedk7nh8,6nvhbqu7,5d2db62ac45885001abf9ce3,7,15,lottery_12,lo,Raspberry,Raspberry,4,Safe option,6,-24,5,-28,,,,,0,0,0,0,,,,,,,,,2026-02-14 09:53:29.630632,1771308000.0,"Tuesday, 17 February at 06:00",1771567200.0,"Friday, 20 February at 06:00",+£13,0.9,0.9,+£2,0.7,0.63,-£43,0.5,0.315,-£43,-22,Risky option,Risky option,Risky option,Risky option,Risky option,Safe option,Safe option,Safe option,Safe option,Safe option,Safe option,Safe option,Safe option,Safe option,Safe option,Safe option,Safe option,Safe option,Safe option,Safe option
yedk7nh8,6nvhbqu7,5d2db62ac45885001abf9ce3,7,16,lottery_12,lo,Raspberry,Raspberry,4,Safe option,10,-13,9,-16,,,,,0,0,0,0,,,,,,A bit complicated,I paid attention throughout the entire study.,"GCSEs or equivalent (e.g., IGCSE, BTEC Firsts)",2026-02-14 09:53:29.630632,1771308000.0,"Tuesday, 17 February at 06:00",1771567200.0,"Friday, 20 February at 06:00",+£13,0.9,0.9,+£2,0.7,0.63,-£43,0.5,0.315,-£43,-22,Risky option,Risky option,Risky option,Risky option,Risky option,Risky option,Risky option,Risky option,Risky option,Safe option,Safe option,Safe option,Safe option,Safe option,Safe option,Safe option,Safe option,Safe option,Safe option,Safe option
yedk7nh8,tl0gz6v7,5e9ffa9ee172201b04f1a4c6,8,1,lottery_2,lo,Banana,Pineapple,7,Safe option,2,-39,1,-45,,,,,1,0,0,0,Yes,No,Yes,Yes,No,,,,2026-02-14 09:54:07.810871,1771308000.0,"Tuesday, 17 February at 06:00",1771567200.0,"Friday, 20 February at 06:00",+£110,0.9,0.9,-£145,1,0.9,+£530,0.6,0.54,+£530,122,Risky option,Safe option,Safe option,Safe option,Safe option,Safe option,Safe option,Safe option,Safe option,Safe option,Safe option,Safe option,Safe option,Safe option,Safe option,Safe option,Safe option,Safe option,Safe option,Safe option
yedk7nh8,tl0gz6v7,5e9ffa9ee172201b04f1a4c6,8,2,lottery_9,hi,Durian,Pineapple,7,Safe option,12,240,11,167,0,167,1,179,0,0,0,0,,,,,,,,,2026-02-14 09:54:07.810871,1771308000.0,"Tuesday, 17 February at 06:00",1771567200.0,"Friday, 20 February at 06:00",+£110,0.9,0.9,-£145,1,0.9,+£530,0.6,0.54,+£530,122,Risky option,Risky option,Risky option,Risky option,Risky option,Risky option,Risky option,Risky option,Risky option,Risky option,Risky option,Safe option,Safe option,Safe option,Safe option,Safe option,Safe option,Safe option,Safe option,Safe option
yedk7nh8,tl0gz6v7,5e9ffa9ee172201b04f1a4c6,8,3,lottery_3,lo,Orange,Pineapple,7,Safe option,12,9,11,4,,,,,0,0,0,0,,,,,,,,,2026-02-14 09:54:07.810871,1771308000.0,"Tuesday, 17 February at 06:00",1771567200.0,"Friday, 20 February at 06:00",+£110,0.9,0.9,-£145,1,0.9,+£530,0.6,0.54,+£530,122,Risky option,Risky option,Risky option,Risky option,Risky option,Risky option,Risky option,Risky option,Risky option,Risky option,Risky option,Safe option,Safe option,Safe option,Safe option,Safe option,Safe option,Safe option,Safe option,Safe option
yedk7nh8,tl0gz6v7,5e9ffa9ee172201b04f1a4c6,8,4,lottery_7,hi,Dragonfruit,Pineapple,7,Safe option,12,132,11,36,2,68,3,84,0,0,0,0,,,,,,,,,2026-02-14 09:54:07.810871,1771308000.0,"Tuesday, 17 February at 06:00",1771567200.0,"Friday, 20 February at 06:00",+£110,0.9,0.9,-£145,1,0.9,+£530,0.6,0.54,+£530,122,Risky option,Risky option,Risky option,Risky option,Risky option,Risky option,Risky option,Risky option,Risky option,Risky option,Risky option,Safe option,Safe option,Safe option,Safe option,Safe option,Safe option,Safe option,Safe option,Safe option
yedk7nh8,tl0gz6v7,5e9ffa9ee172201b04f1a4c6,8,5,lottery_8,hi,Plum,Pineapple,7,Safe option,15,210,14,101,0,101,1,119,0,0,0,0,,,,,,,,,2026-02-14 09:54:07.810871,1771308000.0,"Tuesday, 17 February at 06:00",1771567200.0,"Friday, 20 February at 06:00",+£110,0.9,0.9,-£145,1,0.9,+£530,0.6,0.54,+£530,122,Risky option,Risky option,Risky option,Risky option,Risky option,Risky option,Risky option,Risky option,Risky option,Risky option,Risky option,Risky option,Risky option,Risky option,Safe option,Safe option,Safe option,Safe option,Safe option,Safe option
yedk7nh8,tl0gz6v7,5e9ffa9ee172201b04f1a4c6,8,6,lottery_14,lo,Papaya,Pineapple,7,Safe option,15,22,14,18,,,,,0,0,0,0,,,,,,,,,2026-02-14 09:54:07.810871,1771308000.0,"Tuesday, 17 February at 06:00",1771567200.0,"Friday, 20 February at 06:00",+£110,0.9,0.9,-£145,1,0.9,+£530,0.6,0.54,+£530,122,Risky option,Risky option,Risky option,Risky option,Risky option,Risky option,Risky option,Risky option,Risky option,Risky option,Risky option,Risky option,Risky option,Risky option,Safe option,Safe option,Safe option,Safe option,Safe option,Safe option
yedk7nh8,tl0gz6v7,5e9ffa9ee172201b04f1a4c6,8,7,lottery_4,hi,Pineapple,Pineapple,7,Safe option,14,122,13,60,3,91,4,101,0,0,0,0,,,,,,,,,2026-02-14 09:54:07.810871,1771308000.0,"Tuesday, 17 February at 06:00",1771567200.0,"Friday, 20 February at 06:00",+£110,0.9,0.9,-£145,1,0.9,+£530,0.6,0.54,+£530,122,Risky option,Risky option,Risky option,Risky option,Risky option,Risky option,Risky option,Risky option,Risky option,Risky option,Risky option,Risky option,Risky option,Safe option,Safe option,Safe option,Safe option,Safe option,Safe option,Safe option
yedk7nh8,tl0gz6v7,5e9ffa9ee172201b04f1a4c6,8,8,lottery_10,lo,Pomegranate,Pineapple,7,Safe option,14,18,13,13,,,,,0,0,0,0,,,,,,,,,2026-02-14 09:54:07.810871,1771308000.0,"Tuesday, 17 February at 06:00",1771567200.0,"Friday, 20 February at 06:00",+£110,0.9,0.9,-£145,1,0.9,+£530,0.6,0.54,+£530,122,Risky option,Risky option,Risky option,Risky option,Risky option,Risky option,Risky option,Risky option,Risky option,Risky option,Risky option,Risky option,Risky option,Safe option,Safe option,Safe option,Safe option,Safe option,Safe option,Safe option
yedk7nh8,tl0gz6v7,5e9ffa9ee172201b04f1a4c6,8,9,lottery_13,lo,Fig,Pineapple,7,Safe option,11,6,10,1,,,,,0,0,0,0,,,,,,,,,2026-02-14 09:54:07.810871,1771308000.0,"Tuesday, 17 February at 06:00",1771567200.0,"Friday, 20 February at 06:00",+£110,0.9,0.9,-£145,1,0.9,+£530,0.6,0.54,+£530,122,Risky option,Risky option,Risky option,Risky option,Risky option,Risky option,Risky option,Risky option,Risky option,Risky option,Safe option,Safe option,Safe option,Safe option,Safe option,Safe option,Safe option,Safe option,Safe option,Safe option
yedk7nh8,tl0gz6v7,5e9ffa9ee172201b04f1a4c6,8,10,lottery_12,lo,Raspberry,Pineapple,7,Safe option,14,9,13,5,,,,,0,0,0,0,,,,,,,,,2026-02-14 09:54:07.810871,1771308000.0,"Tuesday, 17 February at 06:00",1771567200.0,"Friday, 20 February at 06:00",+£110,0.9,0.9,-£145,1,0.9,+£530,0.6,0.54,+£530,122,Risky option,Risky option,Risky option,Risky option,Risky option,Risky option,Risky option,Risky option,Risky option,Risky option,Risky option,Risky option,Risky option,Safe option,Safe option,Safe option,Safe option,Safe option,Safe option,Safe option
yedk7nh8,tl0gz6v7,5e9ffa9ee172201b04f1a4c6,8,11,lottery_1,lo,Apple,Pineapple,7,Safe option,13,11,12,6,,,,,0,0,0,0,,,,,,,,,2026-02-14 09:54:07.810871,1771308000.0,"Tuesday, 17 February at 06:00",1771567200.0,"Friday, 20 February at 06:00",+£110,0.9,0.9,-£145,1,0.9,+£530,0.6,0.54,+£530,122,Risky option,Risky option,Risky option,Risky option,Risky option,Risky option,Risky option,Risky option,Risky option,Risky option,Risky option,Risky option,Safe option,Safe option,Safe option,Safe option,Safe option,Safe option,Safe option,Safe option
yedk7nh8,tl0gz6v7,5e9ffa9ee172201b04f1a4c6,8,12,lottery_5,hi,Melon,Pineapple,7,Safe option,14,44,13,-14,4,25,5,34,0,0,0,0,,,,,,,,,2026-02-14 09:54:07.810871,1771308000.0,"Tuesday, 17 February at 06:00",1771567200.0,"Friday, 20 February at 06:00",+£110,0.9,0.9,-£145,1,0.9,+£530,0.6,0.54,+£530,122,Risky option,Risky option,Risky option,Risky option,Risky option,Risky option,Risky option,Risky option,Risky option,Risky option,Risky option,Risky option,Risky option,Safe option,Safe option,Safe option,Safe option,Safe option,Safe option,Safe option
yedk7nh8,tl0gz6v7,5e9ffa9ee172201b04f1a4c6,8,13,lottery_6,hi,Coconut,Pineapple,7,Safe option,16,112,15,56,1,65,2,75,0,0,0,0,,,,,,,,,2026-02-14 09:54:07.810871,1771308000.0,"Tuesday, 17 February at 06:00",1771567200.0,"Friday, 20 February at 06:00",+£110,0.9,0.9,-£145,1,0.9,+£530,0.6,0.54,+£530,122,Risky option,Risky option,Risky option,Risky option,Risky option,Risky option,Risky option,Risky option,Risky option,Risky option,Risky option,Risky option,Risky option,Risky option,Risky option,Safe option,Safe option,Safe option,Safe option,Safe option
yedk7nh8,tl0gz6v7,5e9ffa9ee172201b04f1a4c6,8,14,lottery_11,lo,Avocado,Pineapple,7,Safe option,12,10,11,6,,,,,0,0,0,0,,,,,,,,,2026-02-14 09:54:07.810871,1771308000.0,"Tuesday, 17 February at 06:00",1771567200.0,"Friday, 20 February at 06:00",+£110,0.9,0.9,-£145,1,0.9,+£530,0.6,0.54,+£530,122,Risky option,Risky option,Risky option,Risky option,Risky option,Risky option,Risky option,Risky option,Risky option,Risky option,Risky option,Safe option,Safe option,Safe option,Safe option,Safe option,Safe option,Safe option,Safe option,Safe option
yedk7nh8,tl0gz6v7,5e9ffa9ee172201b04f1a4c6,8,15,lottery_4,hi,Pineapple,Pineapple,7,Safe option,17,203,16,142,5,193,6,203,0,0,0,0,,,,,,,,,2026-02-14 09:54:07.810871,1771308000.0,"Tuesday, 17 February at 06:00",1771567200.0,"Friday, 20 February at 06:00",+£110,0.9,0.9,-£145,1,0.9,+£530,0.6,0.54,+£530,122,Risky option,Risky option,Risky option,Risky option,Risky option,Risky option,Risky option,Risky option,Risky option,Risky option,Risky option,Risky option,Risky option,Risky option,Risky option,Risky option,Safe option,Safe option,Safe option,Safe option
yedk7nh8,tl0gz6v7,5e9ffa9ee172201b04f1a4c6,8,16,lottery_4,hi,Pineapple,Pineapple,7,Safe option,15,226,14,165,1,175,2,185,0,0,0,0,,,,,,A bit complicated,I paid attention throughout the entire study.,"Bachelor's degree or equivalent (e.g., BA, BSc, HND, HNC, foundation degree)",2026-02-14 09:54:07.810871,1771308000.0,"Tuesday, 17 February at 06:00",1771567200.0,"Friday, 20 February at 06:00",+£110,0.9,0.9,-£145,1,0.9,+£530,0.6,0.54,+£530,122,Risky option,Risky option,Risky option,Risky option,Risky option,Risky option,Risky option,Risky option,Risky option,Risky option,Risky option,Risky option,Risky option,Risky option,Safe option,Safe option,Safe option,Safe option,Safe option,Safe option
yedk7nh8,lxt8h46v,696c14c4c7de2d012b0911cb,9,1,lottery_1,lo,Apple,Melon,8,Safe option,11,1,10,-3,,,,,1,0,0,0,Yes,No,Yes,Yes,No,,,,2026-02-14 09:54:44.135282,1771308000.0,"Tuesday, 17 February at 06:00",1771567200.0,"Friday, 20 February at 06:00",+£115,0.9,0.9,-£145,1,0.9,+£425,0.6,0.54,+£425,44,Risky option,Risky option,Risky option,Risky option,Risky option,Risky option,Risky option,Risky option,Risky option,Risky option,Safe option,Safe option,Safe option,Safe option,Safe option,Safe option,Safe option,Safe option,Safe option,Safe option
yedk7nh8,lxt8h46v,696c14c4c7de2d012b0911cb,9,2,lottery_6,hi,Coconut,Melon,8,Safe option,15,56,14,0,0,0,1,9,0,0,0,0,,,,,,,,,2026-02-14 09:54:44.135282,1771308000.0,"Tuesday, 17 February at 06:00",1771567200.0,"Friday, 20 February at 06:00",+£115,0.9,0.9,-£145,1,0.9,+£425,0.6,0.54,+£425,44,Risky option,Risky option,Risky option,Risky option,Risky option,Risky option,Risky option,Risky option,Risky option,Risky option,Risky option,Risky option,Risky option,Risky option,Safe option,Safe option,Safe option,Safe option,Safe option,Safe option
yedk7nh8,lxt8h46v,696c14c4c7de2d012b0911cb,9,3,lottery_11,lo,Avocado,Melon,8,Safe option,16,26,15,22,,,,,0,0,0,0,,,,,,,,,2026-02-14 09:54:44.135282,1771308000.0,"Tuesday, 17 February at 06:00",1771567200.0,"Friday, 20 February at 06:00",+£115,0.9,0.9,-£145,1,0.9,+£425,0.6,0.54,+£425,44,Risky option,Risky option,Risky option,Risky option,Risky option,Risky option,Risky option,Risky option,Risky option,Risky option,Risky option,Risky option,Risky option,Risky option,Risky option,Safe option,Safe option,Safe option,Safe option,Safe option
yedk7nh8,lxt8h46v,696c14c4c7de2d012b0911cb,9,4,lottery_2,lo,Banana,Melon,8,Safe option,10,5,9,0,,,,,0,0,0,0,,,,,,,,,2026-02-14 09:54:44.135282,1771308000.0,"Tuesday, 17 February at 06:00",1771567200.0,"Friday, 20 February at 06:00",+£115,0.9,0.9,-£145,1,0.9,+£425,0.6,0.54,+£425,44,Risky option,Risky option,Risky option,Risky option,Risky option,Risky option,Risky option,Risky option,Risky option,Safe option,Safe option,Safe option,Safe option,Safe option,Safe option,Safe option,Safe option,Safe option,Safe option,Safe option
yedk7nh8,lxt8h46v,696c14c4c7de2d012b0911cb,9,5,lottery_3,lo,Orange,Melon,8,Safe option,12,9,11,4,,,,,0,0,0,0,,,,,,,,,2026-02-14 09:54:44.135282,1771308000.0,"Tuesday, 17 February at 06:00",1771567200.0,"Friday, 20 February at 06:00",+£115,0.9,0.9,-£145,1,0.9,+£425,0.6,0.54,+£425,44,Risky option,Risky option,Risky option,Risky option,Risky option,Risky option,Risky option,Risky option,Risky option,Risky option,Risky option,Safe option,Safe option,Safe option,Safe option,Safe option,Safe option,Safe option,Safe option,Safe option
yedk7nh8,lxt8h46v,696c14c4c7de2d012b0911cb,9,6,lottery_4,hi,Pineapple,Melon,8,Safe option,13,60,12,-2,0,-2,1,8,0,0,0,0,,,,,,,,,2026-02-14 09:54:44.135282,1771308000.0,"Tuesday, 17 February at 06:00",1771567200.0,"Friday, 20 February at 06:00",+£115,0.9,0.9,-£145,1,0.9,+£425,0.6,0.54,+£425,44,Risky option,Risky option,Risky option,Risky option,Risky option,Risky option,Risky option,Risky option,Risky option,Risky option,Risky option,Risky option,Safe option,Safe option,Safe option,Safe option,Safe option,Safe option,Safe option,Safe option
yedk7nh8,lxt8h46v,696c14c4c7de2d012b0911cb,9,7,lottery_9,hi,Durian,Melon,8,Safe option,9,21,8,-51,4,-3,5,9,0,0,0,0,,,,,,,,,2026-02-14 09:54:44.135282,1771308000.0,"Tuesday, 17 February at 06:00",1771567200.0,"Friday, 20 February at 06:00",+£115,0.9,0.9,-£145,1,0.9,+£425,0.6,0.54,+£425,44,Risky option,Risky option,Risky option,Risky option,Risky option,Risky option,Risky option,Risky option,Safe option,Safe option,Safe option,Safe option,Safe option,Safe option,Safe option,Safe option,Safe option,Safe option,Safe option,Safe option
yedk7nh8,lxt8h46v,696c14c4c7de2d012b0911cb,9,8,lottery_5,hi,Melon,Melon,8,Safe option,14,44,13,-14,1,-4,2,5,0,0,0,0,,,,,,,,,2026-02-14 09:54:44.135282,1771308000.0,"Tuesday, 17 February at 06:00",1771567200.0,"Friday, 20 February at 06:00",+£115,0.9,0.9,-£145,1,0.9,+£425,0.6,0.54,+£425,44,Risky option,Risky option,Risky option,Risky option,Risky option,Risky option,Risky option,Risky option,Risky option,Risky option,Risky option,Risky option,Risky option,Safe option,Safe option,Safe option,Safe option,Safe option,Safe option,Safe option
yedk7nh8,lxt8h46v,696c14c4c7de2d012b0911cb,9,9,lottery_12,lo,Raspberry,Melon,8,Safe option,13,5,12,0,,,,,0,0,0,0,,,,,,,,,2026-02-14 09:54:44.135282,1771308000.0,"Tuesday, 17 February at 06:00",1771567200.0,"Friday, 20 February at 06:00",+£115,0.9,0.9,-£145,1,0.9,+£425,0.6,0.54,+£425,44,Risky option,Risky option,Risky option,Risky option,Risky option,Risky option,Risky option,Risky option,Risky option,Risky option,Risky option,Risky option,Safe option,Safe option,Safe option,Safe option,Safe option,Safe option,Safe option,Safe option
yedk7nh8,lxt8h46v,696c14c4c7de2d012b0911cb,9,10,lottery_8,hi,Plum,Melon,8,Safe option,14,101,13,-8,0,-8,1,10,0,0,0,0,,,,,,,,,2026-02-14 09:54:44.135282,1771308000.0,"Tuesday, 17 February at 06:00",1771567200.0,"Friday, 20 February at 06:00",+£115,0.9,0.9,-£145,1,0.9,+£425,0.6,0.54,+£425,44,Risky option,Risky option,Risky option,Risky option,Risky option,Risky option,Risky option,Risky option,Risky option,Risky option,Risky option,Risky option,Risky option,Safe option,Safe option,Safe option,Safe option,Safe option,Safe option,Safe option
yedk7nh8,lxt8h46v,696c14c4c7de2d012b0911cb,9,11,lottery_13,lo,Fig,Melon,8,Safe option,13,15,12,10,,,,,0,0,0,0,,,,,,,,,2026-02-14 09:54:44.135282,1771308000.0,"Tuesday, 17 February at 06:00",1771567200.0,"Friday, 20 February at 06:00",+£115,0.9,0.9,-£145,1,0.9,+£425,0.6,0.54,+£425,44,Risky option,Risky option,Risky option,Risky option,Risky option,Risky option,Risky option,Risky option,Risky option,Risky option,Risky option,Risky option,Safe option,Safe option,Safe option,Safe option,Safe option,Safe option,Safe option,Safe option
yedk7nh8,lxt8h46v,696c14c4c7de2d012b0911cb,9,12,lottery_7,hi,Dragonfruit,Melon,8,Safe option,11,36,10,-61,3,-12,4,4,0,0,0,0,,,,,,,,,2026-02-14 09:54:44.135282,1771308000.0,"Tuesday, 17 February at 06:00",1771567200.0,"Friday, 20 February at 06:00",+£115,0.9,0.9,-£145,1,0.9,+£425,0.6,0.54,+£425,44,Risky option,Risky option,Risky option,Risky option,Risky option,Risky option,Risky option,Risky option,Risky option,Risky option,Safe option,Safe option,Safe option,Safe option,Safe option,Safe option,Safe option,Safe option,Safe option,Safe option
yedk7nh8,lxt8h46v,696c14c4c7de2d012b0911cb,9,13,lottery_14,lo,Papaya,Melon,8,Safe option,11,5,10,0,,,,,0,0,0,0,,,,,,,,,2026-02-14 09:54:44.135282,1771308000.0,"Tuesday, 17 February at 06:00",1771567200.0,"Friday, 20 February at 06:00",+£115,0.9,0.9,-£145,1,0.9,+£425,0.6,0.54,+£425,44,Risky option,Risky option,Risky option,Risky option,Risky option,Risky option,Risky option,Risky option,Risky option,Risky option,Safe option,Safe option,Safe option,Safe option,Safe option,Safe option,Safe option,Safe option,Safe option,Safe option
yedk7nh8,lxt8h46v,696c14c4c7de2d012b0911cb,9,14,lottery_10,lo,Pomegranate,Melon,8,Safe option,11,4,10,-1,,,,,0,0,0,0,,,,,,,,,2026-02-14 09:54:44.135282,1771308000.0,"Tuesday, 17 February at 06:00",1771567200.0,"Friday, 20 February at 06:00",+£115,0.9,0.9,-£145,1,0.9,+£425,0.6,0.54,+£425,44,Risky option,Risky option,Risky option,Risky option,Risky option,Risky option,Risky option,Risky option,Risky option,Risky option,Safe option,Safe option,Safe option,Safe option,Safe option,Safe option,Safe option,Safe option,Safe option,Safe option
yedk7nh8,lxt8h46v,696c14c4c7de2d012b0911cb,9,15,lottery_5,hi,Melon,Melon,8,Safe option,15,37,14,-12,4,21,5,29,0,0,0,0,,,,,,,,,2026-02-14 09:54:44.135282,1771308000.0,"Tuesday, 17 February at 06:00",1771567200.0,"Friday, 20 February at 06:00",+£115,0.9,0.9,-£145,1,0.9,+£425,0.6,0.54,+£425,44,Risky option,Risky option,Risky option,Risky option,Risky option,Risky option,Risky option,Risky option,Risky option,Risky option,Risky option,Risky option,Risky option,Risky option,Safe option,Safe option,Safe option,Safe option,Safe option,Safe option
yedk7nh8,lxt8h46v,696c14c4c7de2d012b0911cb,9,16,lottery_5,hi,Melon,Melon,8,Safe option,12,36,11,-13,2,3,3,12,0,0,0,0,,,,,,A bit complicated,I paid attention throughout the entire study.,"A-levels or equivalent (e.g., BTEC Nationals, T-levels)",2026-02-14 09:54:44.135282,1771308000.0,"Tuesday, 17 February at 06:00",1771567200.0,"Friday, 20 February at 06:00",+£115,0.9,0.9,-£145,1,0.9,+£425,0.6,0.54,+£425,44,Risky option,Risky option,Risky option,Risky option,Risky option,Risky option,Risky option,Risky option,Risky option,Risky option,Risky option,Safe option,Safe option,Safe option,Safe option,Safe option,Safe option,Safe option,Safe option,Safe option
yedk7nh8,0bsw5c53,6151e69a392433707e7a9dfb,10,1,lottery_2,lo,Banana,Avocado,4,Safe option,17,44,16,39,,,,,0,0,0,0,Yes,No,Yes,Yes,No,,,,2026-02-14 09:55:15.521199,1771308000.0,"Tuesday, 17 February at 06:00",1771567200.0,"Friday, 20 February at 06:00",+£5,0.9,0.9,-£6,0.3,0.27,+£16,0.7,0.189,+£16,30,Risky option,Risky option,Risky option,Risky option,Risky option,Risky option,Risky option,Risky option,Risky option,Risky option,Risky option,Risky option,Risky option,Risky option,Risky option,Risky option,Safe option,Safe option,Safe option,Safe option
yedk7nh8,0bsw5c53,6151e69a392433707e7a9dfb,10,2,lottery_1,lo,Apple,Avocado,4,Safe option,19,39,18,35,,,,,0,0,0,0,,,,,,,,,2026-02-14 09:55:15.521199,1771308000.0,"Tuesday, 17 February at 06:00",1771567200.0,"Friday, 20 February at 06:00",+£5,0.9,0.9,-£6,0.3,0.27,+£16,0.7,0.189,+£16,30,Risky option,Risky option,Risky option,Risky option,Risky option,Risky option,Risky option,Risky option,Risky option,Risky option,Risky option,Risky option,Risky option,Risky option,Risky option,Risky option,Risky option,Risky option,Safe option,Safe option
yedk7nh8,0bsw5c53,6151e69a392433707e7a9dfb,10,3,lottery_8,hi,Plum,Avocado,4,Safe option,14,101,13,-8,0,-8,1,10,0,0,0,0,,,,,,,,,2026-02-14 09:55:15.521199,1771308000.0,"Tuesday, 17 February at 06:00",1771567200.0,"Friday, 20 February at 06:00",+£5,0.9,0.9,-£6,0.3,0.27,+£16,0.7,0.189,+£16,30,Risky option,Risky option,Risky option,Risky option,Risky option,Risky option,Risky option,Risky option,Risky option,Risky option,Risky option,Risky option,Risky option,Safe option,Safe option,Safe option,Safe option,Safe option,Safe option,Safe option
yedk7nh8,0bsw5c53,6151e69a392433707e7a9dfb,10,4,lottery_11,lo,Avocado,Avocado,4,Safe option,17,30,16,26,,,,,0,0,0,0,,,,,,,,,2026-02-14 09:55:15.521199,1771308000.0,"Tuesday, 17 February at 06:00",1771567200.0,"Friday, 20 February at 06:00",+£5,0.9,0.9,-£6,0.3,0.27,+£16,0.7,0.189,+£16,30,Risky option,Risky option,Risky option,Risky option,Risky option,Risky option,Risky option,Risky option,Risky option,Risky option,Risky option,Risky option,Risky option,Risky option,Risky option,Risky option,Safe option,Safe option,Safe option,Safe option
yedk7nh8,0bsw5c53,6151e69a392433707e7a9dfb,10,5,lottery_14,lo,Papaya,Avocado,4,Safe option,12,9,11,5,,,,,0,0,0,0,,,,,,,,,2026-02-14 09:55:15.521199,1771308000.0,"Tuesday, 17 February at 06:00",1771567200.0,"Friday, 20 February at 06:00",+£5,0.9,0.9,-£6,0.3,0.27,+£16,0.7,0.189,+£16,30,Risky option,Risky option,Risky option,Risky option,Risky option,Risky option,Risky option,Risky option,Risky option,Risky option,Risky option,Safe option,Safe option,Safe option,Safe option,Safe option,Safe option,Safe option,Safe option,Safe option
yedk7nh8,0bsw5c53,6151e69a392433707e7a9dfb,10,6,lottery_9,hi,Durian,Avocado,4,Safe option,10,94,9,21,0,21,1,33,0,0,0,0,,,,,,,,,2026-02-14 09:55:15.521199,1771308000.0,"Tuesday, 17 February at 06:00",1771567200.0,"Friday, 20 February at 06:00",+£5,0.9,0.9,-£6,0.3,0.27,+£16,0.7,0.189,+£16,30,Risky option,Risky option,Risky option,Risky option,Risky option,Risky option,Risky option,Risky option,Risky option,Safe option,Safe option,Safe option,Safe option,Safe option,Safe option,Safe option,Safe option,Safe option,Safe option,Safe option
yedk7nh8,0bsw5c53,6151e69a392433707e7a9dfb,10,7,lottery_6,hi,Coconut,Avocado,4,Safe option,15,56,14,0,0,0,1,9,0,0,0,0,,,,,,,,,2026-02-14 09:55:15.521199,1771308000.0,"Tuesday, 17 February at 06:00",1771567200.0,"Friday, 20 February at 06:00",+£5,0.9,0.9,-£6,0.3,0.27,+£16,0.7,0.189,+£16,30,Risky option,Risky option,Risky option,Risky option,Risky option,Risky option,Risky option,Risky option,Risky option,Risky option,Risky option,Risky option,Risky option,Risky option,Safe option,Safe option,Safe option,Safe option,Safe option,Safe option
yedk7nh8,0bsw5c53,6151e69a392433707e7a9dfb,10,8,lottery_4,hi,Pineapple,Avocado,4,Safe option,13,60,12,-2,0,-2,1,8,0,0,0,0,,,,,,,,,2026-02-14 09:55:15.521199,1771308000.0,"Tuesday, 17 February at 06:00",1771567200.0,"Friday, 20 February at 06:00",+£5,0.9,0.9,-£6,0.3,0.27,+£16,0.7,0.189,+£16,30,Risky option,Risky option,Risky option,Risky option,Risky option,Risky option,Risky option,Risky option,Risky option,Risky option,Risky option,Risky option,Safe option,Safe option,Safe option,Safe option,Safe option,Safe option,Safe option,Safe option
yedk7nh8,0bsw5c53,6151e69a392433707e7a9dfb,10,9,lottery_10,lo,Pomegranate,Avocado,4,Safe option,13,13,12,8,,,,,0,0,0,0,,,,,,,,,2026-02-14 09:55:15.521199,1771308000.0,"Tuesday, 17 February at 06:00",1771567200.0,"Friday, 20 February at 06:00",+£5,0.9,0.9,-£6,0.3,0.27,+£16,0.7,0.189,+£16,30,Risky option,Risky option,Risky option,Risky option,Risky option,Risky option,Risky option,Risky option,Risky option,Risky option,Risky option,Risky option,Safe option,Safe option,Safe option,Safe option,Safe option,Safe option,Safe option,Safe option
yedk7nh8,0bsw5c53,6151e69a392433707e7a9dfb,10,10,lottery_3,lo,Orange,Avocado,4,Safe option,1,-47,0,-47,,,,,0,0,0,0,,,,,,,,,2026-02-14 09:55:15.521199,1771308000.0,"Tuesday, 17 February at 06:00",1771567200.0,"Friday, 20 February at 06:00",+£5,0.9,0.9,-£6,0.3,0.27,+£16,0.7,0.189,+£16,30,Safe option,Safe option,Safe option,Safe option,Safe option,Safe option,Safe option,Safe option,Safe option,Safe option,Safe option,Safe option,Safe option,Safe option,Safe option,Safe option,Safe option,Safe option,Safe option,Safe option
yedk7nh8,0bsw5c53,6151e69a392433707e7a9dfb,10,11,lottery_12,lo,Raspberry,Avocado,4,Safe option,20,36,19,32,,,,,0,0,0,0,,,,,,,,,2026-02-14 09:55:15.521199,1771308000.0,"Tuesday, 17 February at 06:00",1771567200.0,"Friday, 20 February at 06:00",+£5,0.9,0.9,-£6,0.3,0.27,+£16,0.7,0.189,+£16,30,Risky option,Risky option,Risky option,Risky option,Risky option,Risky option,Risky option,Risky option,Risky option,Risky option,Risky option,Risky option,Risky option,Risky option,Risky option,Risky option,Risky option,Risky option,Risky option,Safe option
yedk7nh8,0bsw5c53,6151e69a392433707e7a9dfb,10,12,lottery_13,lo,Fig,Avocado,4,Safe option,10,1,9,-3,,,,,0,0,0,0,,,,,,,,,2026-02-14 09:55:15.521199,1771308000.0,"Tuesday, 17 February at 06:00",1771567200.0,"Friday, 20 February at 06:00",+£5,0.9,0.9,-£6,0.3,0.27,+£16,0.7,0.189,+£16,30,Risky option,Risky option,Risky option,Risky option,Risky option,Risky option,Risky option,Risky option,Risky option,Safe option,Safe option,Safe option,Safe option,Safe option,Safe option,Safe option,Safe option,Safe option,Safe option,Safe option
yedk7nh8,0bsw5c53,6151e69a392433707e7a9dfb,10,13,lottery_5,hi,Melon,Avocado,4,Safe option,18,278,17,220,4,259,5,268,0,0,0,0,,,,,,,,,2026-02-14 09:55:15.521199,1771308000.0,"Tuesday, 17 February at 06:00",1771567200.0,"Friday, 20 February at 06:00",+£5,0.9,0.9,-£6,0.3,0.27,+£16,0.7,0.189,+£16,30,Risky option,Risky option,Risky option,Risky option,Risky option,Risky option,Risky option,Risky option,Risky option,Risky option,Risky option,Risky option,Risky option,Risky option,Risky option,Risky option,Risky option,Safe option,Safe option,Safe option
yedk7nh8,0bsw5c53,6151e69a392433707e7a9dfb,10,14,lottery_7,hi,Dragonfruit,Avocado,4,Safe option,11,36,10,-61,3,-12,4,4,0,0,0,0,,,,,,,,,2026-02-14 09:55:15.521199,1771308000.0,"Tuesday, 17 February at 06:00",1771567200.0,"Friday, 20 February at 06:00",+£5,0.9,0.9,-£6,0.3,0.27,+£16,0.7,0.189,+£16,30,Risky option,Risky option,Risky option,Risky option,Risky option,Risky option,Risky option,Risky option,Risky option,Risky option,Safe option,Safe option,Safe option,Safe option,Safe option,Safe option,Safe option,Safe option,Safe option,Safe option
yedk7nh8,0bsw5c53,6151e69a392433707e7a9dfb,10,15,lottery_11,lo,Avocado,Avocado,4,Safe option,9,-4,8,-7,,,,,0,0,0,0,,,,,,,,,2026-02-14 09:55:15.521199,1771308000.0,"Tuesday, 17 February at 06:00",1771567200.0,"Friday, 20 February at 06:00",+£5,0.9,0.9,-£6,0.3,0.27,+£16,0.7,0.189,+£16,30,Risky option,Risky option,Risky option,Risky option,Risky option,Risky option,Risky option,Risky option,Safe option,Safe option,Safe option,Safe option,Safe option,Safe option,Safe option,Safe option,Safe option,Safe option,Safe option,Safe option
yedk7nh8,0bsw5c53,6151e69a392433707e7a9dfb,10,16,lottery_11,lo,Avocado,Avocado,4,Safe option,14,2,13,0,,,,,0,0,0,0,,,,,,Not complicated at all,I paid attention throughout the entire study.,"Bachelor's degree or equivalent (e.g., BA, BSc, HND, HNC, foundation degree)",2026-02-14 09:55:15.521199,1771308000.0,"Tuesday, 17 February at 06:00",1771567200.0,"Friday, 20 February at 06:00",+£5,0.9,0.9,-£6,0.3,0.27,+£16,0.7,0.189,+£16,30,Risky option,Risky option,Risky option,Risky option,Risky option,Risky option,Risky option,Risky option,Risky option,Risky option,Risky option,Risky option,Risky option,Safe option,Safe option,Safe option,Safe option,Safe option,Safe option,Safe option
yedk7nh8,qpac29ai,58954e2dc88c680001dd4b7e,11,1,lottery_3,lo,Orange,Orange,1,Safe option,11,4,10,-2,,,,,1,0,0,0,Yes,No,Yes,Yes,No,,,,2026-02-14 09:55:41.997094,1771308000.0,"Tuesday, 17 February at 06:00",1771567200.0,"Friday, 20 February at 06:00",+£8,0.7,0.7,+£10,1,0.7,-£37,0.7,0.49,-£37,4,Risky option,Risky option,Risky option,Risky option,Risky option,Risky option,Risky option,Risky option,Risky option,Risky option,Safe option,Safe option,Safe option,Safe option,Safe option,Safe option,Safe option,Safe option,Safe option,Safe option
yedk7nh8,qpac29ai,58954e2dc88c680001dd4b7e,11,2,lottery_8,hi,Plum,Orange,1,Safe option,14,101,13,-8,4,65,5,83,0,0,0,0,,,,,,,,,2026-02-14 09:55:41.997094,1771308000.0,"Tuesday, 17 February at 06:00",1771567200.0,"Friday, 20 February at 06:00",+£8,0.7,0.7,+£10,1,0.7,-£37,0.7,0.49,-£37,4,Risky option,Risky option,Risky option,Risky option,Risky option,Risky option,Risky option,Risky option,Risky option,Risky option,Risky option,Risky option,Risky option,Safe option,Safe option,Safe option,Safe option,Safe option,Safe option,Safe option
yedk7nh8,qpac29ai,58954e2dc88c680001dd4b7e,11,3,lottery_13,lo,Fig,Orange,1,Safe option,14,20,13,15,,,,,0,0,0,0,,,,,,,,,2026-02-14 09:55:41.997094,1771308000.0,"Tuesday, 17 February at 06:00",1771567200.0,"Friday, 20 February at 06:00",+£8,0.7,0.7,+£10,1,0.7,-£37,0.7,0.49,-£37,4,Risky option,Risky option,Risky option,Risky option,Risky option,Risky option,Risky option,Risky option,Risky option,Risky option,Risky option,Risky option,Risky option,Safe option,Safe option,Safe option,Safe option,Safe option,Safe option,Safe option
yedk7nh8,qpac29ai,58954e2dc88c680001dd4b7e,11,4,lottery_12,lo,Raspberry,Orange,1,Safe option,13,5,12,0,,,,,0,0,0,0,,,,,,,,,2026-02-14 09:55:41.997094,1771308000.0,"Tuesday, 17 February at 06:00",1771567200.0,"Friday, 20 February at 06:00",+£8,0.7,0.7,+£10,1,0.7,-£37,0.7,0.49,-£37,4,Risky option,Risky option,Risky option,Risky option,Risky option,Risky option,Risky option,Risky option,Risky option,Risky option,Risky option,Risky option,Safe option,Safe option,Safe option,Safe option,Safe option,Safe option,Safe option,Safe option
yedk7nh8,qpac29ai,58954e2dc88c680001dd4b7e,11,5,lottery_1,lo,Apple,Orange,1,Safe option,14,16,13,11,,,,,0,0,0,0,,,,,,,,,2026-02-14 09:55:41.997094,1771308000.0,"Tuesday, 17 February at 06:00",1771567200.0,"Friday, 20 February at 06:00",+£8,0.7,0.7,+£10,1,0.7,-£37,0.7,0.49,-£37,4,Risky option,Risky option,Risky option,Risky option,Risky option,Risky option,Risky option,Risky option,Risky option,Risky option,Risky option,Risky option,Risky option,Safe option,Safe option,Safe option,Safe option,Safe option,Safe option,Safe option
yedk7nh8,qpac29ai,58954e2dc88c680001dd4b7e,11,6,lottery_6,hi,Coconut,Orange,1,Safe option,15,56,14,0,1,9,2,19,0,0,0,0,,,,,,,,,2026-02-14 09:55:41.997094,1771308000.0,"Tuesday, 17 February at 06:00",1771567200.0,"Friday, 20 February at 06:00",+£8,0.7,0.7,+£10,1,0.7,-£37,0.7,0.49,-£37,4,Risky option,Risky option,Risky option,Risky option,Risky option,Risky option,Risky option,Risky option,Risky option,Risky option,Risky option,Risky option,Risky option,Risky option,Safe option,Safe option,Safe option,Safe option,Safe option,Safe option
yedk7nh8,qpac29ai,58954e2dc88c680001dd4b7e,11,7,lottery_11,lo,Avocado,Orange,1,Safe option,11,6,10,2,,,,,0,0,0,0,,,,,,,,,2026-02-14 09:55:41.997094,1771308000.0,"Tuesday, 17 February at 06:00",1771567200.0,"Friday, 20 February at 06:00",+£8,0.7,0.7,+£10,1,0.7,-£37,0.7,0.49,-£37,4,Risky option,Risky option,Risky option,Risky option,Risky option,Risky option,Risky option,Risky option,Risky option,Risky option,Safe option,Safe option,Safe option,Safe option,Safe option,Safe option,Safe option,Safe option,Safe option,Safe option
yedk7nh8,qpac29ai,58954e2dc88c680001dd4b7e,11,8,lottery_14,lo,Papaya,Orange,1,Safe option,12,9,11,5,,,,,0,0,0,0,,,,,,,,,2026-02-14 09:55:41.997094,1771308000.0,"Tuesday, 17 February at 06:00",1771567200.0,"Friday, 20 February at 06:00",+£8,0.7,0.7,+£10,1,0.7,-£37,0.7,0.49,-£37,4,Risky option,Risky option,Risky option,Risky option,Risky option,Risky option,Risky option,Risky option,Risky option,Risky option,Risky option,Safe option,Safe option,Safe option,Safe option,Safe option,Safe option,Safe option,Safe option,Safe option
yedk7nh8,qpac29ai,58954e2dc88c680001dd4b7e,11,9,lottery_4,hi,Pineapple,Orange,1,Safe option,14,122,13,60,3,91,4,101,0,0,0,0,,,,,,,,,2026-02-14 09:55:41.997094,1771308000.0,"Tuesday, 17 February at 06:00",1771567200.0,"Friday, 20 February at 06:00",+£8,0.7,0.7,+£10,1,0.7,-£37,0.7,0.49,-£37,4,Risky option,Risky option,Risky option,Risky option,Risky option,Risky option,Risky option,Risky option,Risky option,Risky option,Risky option,Risky option,Risky option,Safe option,Safe option,Safe option,Safe option,Safe option,Safe option,Safe option
yedk7nh8,qpac29ai,58954e2dc88c680001dd4b7e,11,10,lottery_2,lo,Banana,Orange,1,Safe option,13,22,12,16,,,,,0,0,0,0,,,,,,,,,2026-02-14 09:55:41.997094,1771308000.0,"Tuesday, 17 February at 06:00",1771567200.0,"Friday, 20 February at 06:00",+£8,0.7,0.7,+£10,1,0.7,-£37,0.7,0.49,-£37,4,Risky option,Risky option,Risky option,Risky option,Risky option,Risky option,Risky option,Risky option,Risky option,Risky option,Risky option,Risky option,Safe option,Safe option,Safe option,Safe option,Safe option,Safe option,Safe option,Safe option
yedk7nh8,qpac29ai,58954e2dc88c680001dd4b7e,11,11,lottery_5,hi,Melon,Orange,1,Safe option,16,161,15,103,0,103,1,113,0,0,0,0,,,,,,,,,2026-02-14 09:55:41.997094,1771308000.0,"Tuesday, 17 February at 06:00",1771567200.0,"Friday, 20 February at 06:00",+£8,0.7,0.7,+£10,1,0.7,-£37,0.7,0.49,-£37,4,Risky option,Risky option,Risky option,Risky option,Risky option,Risky option,Risky option,Risky option,Risky option,Risky option,Risky option,Risky option,Risky option,Risky option,Risky option,Safe option,Safe option,Safe option,Safe option,Safe option
yedk7nh8,qpac29ai,58954e2dc88c680001dd4b7e,11,12,lottery_9,hi,Durian,Orange,1,Safe option,9,21,8,-51,3,-15,4,-3,0,0,0,0,,,,,,,,,2026-02-14 09:55:41.997094,1771308000.0,"Tuesday, 17 February at 06:00",1771567200.0,"Friday, 20 February at 06:00",+£8,0.7,0.7,+£10,1,0.7,-£37,0.7,0.49,-£37,4,Risky option,Risky option,Risky option,Risky option,Risky option,Risky option,Risky option,Risky option,Safe option,Safe option,Safe option,Safe option,Safe option,Safe option,Safe option,Safe option,Safe option,Safe option,Safe option,Safe option
yedk7nh8,qpac29ai,58954e2dc88c680001dd4b7e,11,13,lottery_7,hi,Dragonfruit,Orange,1,Safe option,12,132,11,36,3,84,4,100,0,0,0,0,,,,,,,,,2026-02-14 09:55:41.997094,1771308000.0,"Tuesday, 17 February at 06:00",1771567200.0,"Friday, 20 February at 06:00",+£8,0.7,0.7,+£10,1,0.7,-£37,0.7,0.49,-£37,4,Risky option,Risky option,Risky option,Risky option,Risky option,Risky option,Risky option,Risky option,Risky option,Risky option,Risky option,Safe option,Safe option,Safe option,Safe option,Safe option,Safe option,Safe option,Safe option,Safe option
yedk7nh8,qpac29ai,58954e2dc88c680001dd4b7e,11,14,lottery_10,lo,Pomegranate,Orange,1,Safe option,13,13,12,8,,,,,0,0,0,0,,,,,,,,,2026-02-14 09:55:41.997094,1771308000.0,"Tuesday, 17 February at 06:00",1771567200.0,"Friday, 20 February at 06:00",+£8,0.7,0.7,+£10,1,0.7,-£37,0.7,0.49,-£37,4,Risky option,Risky option,Risky option,Risky option,Risky option,Risky option,Risky option,Risky option,Risky option,Risky option,Risky option,Risky option,Safe option,Safe option,Safe option,Safe option,Safe option,Safe option,Safe option,Safe option
yedk7nh8,qpac29ai,58954e2dc88c680001dd4b7e,11,15,lottery_3,lo,Orange,Orange,1,Safe option,9,2,8,-2,,,,,0,0,0,0,,,,,,,,,2026-02-14 09:55:41.997094,1771308000.0,"Tuesday, 17 February at 06:00",1771567200.0,"Friday, 20 February at 06:00",+£8,0.7,0.7,+£10,1,0.7,-£37,0.7,0.49,-£37,4,Risky option,Risky option,Risky option,Risky option,Risky option,Risky option,Risky option,Risky option,Safe option,Safe option,Safe option,Safe option,Safe option,Safe option,Safe option,Safe option,Safe option,Safe option,Safe option,Safe option
yedk7nh8,qpac29ai,58954e2dc88c680001dd4b7e,11,16,lottery_3,lo,Orange,Orange,1,Safe option,11,-1,10,-5,,,,,0,0,0,0,,,,,,A bit complicated,I paid attention throughout the entire study.,"GCSEs or equivalent (e.g., IGCSE, BTEC Firsts)",2026-02-14 09:55:41.997094,1771308000.0,"Tuesday, 17 February at 06:00",1771567200.0,"Friday, 20 February at 06:00",+£8,0.7,0.7,+£10,1,0.7,-£37,0.7,0.49,-£37,4,Risky option,Risky option,Risky option,Risky option,Risky option,Risky option,Risky option,Risky option,Risky option,Risky option,Safe option,Safe option,Safe option,Safe option,Safe option,Safe option,Safe option,Safe option,Safe option,Safe option
yedk7nh8,b5ht5wb0,6352fb64b16cb5ae7fa86ae7,12,1,lottery_2,lo,Banana,Banana,1,Safe option,8,-6,7,-12,,,,,1,0,0,0,Yes,No,Yes,Yes,No,,,,2026-02-14 09:56:15.081255,1771308000.0,"Tuesday, 17 February at 06:00",1771567200.0,"Friday, 20 February at 06:00",+£22,0.4,0.4,-£34,1,0.4,-£33,0.4,0.16,-£33,-6,Risky option,Risky option,Risky option,Risky option,Risky option,Risky option,Risky option,Safe option,Safe option,Safe option,Safe option,Safe option,Safe option,Safe option,Safe option,Safe option,Safe option,Safe option,Safe option,Safe option
yedk7nh8,b5ht5wb0,6352fb64b16cb5ae7fa86ae7,12,2,lottery_12,lo,Raspberry,Banana,1,Safe option,9,-13,8,-18,,,,,0,0,0,0,,,,,,,,,2026-02-14 09:56:15.081255,1771308000.0,"Tuesday, 17 February at 06:00",1771567200.0,"Friday, 20 February at 06:00",+£22,0.4,0.4,-£34,1,0.4,-£33,0.4,0.16,-£33,-6,Risky option,Risky option,Risky option,Risky option,Risky option,Risky option,Risky option,Risky option,Safe option,Safe option,Safe option,Safe option,Safe option,Safe option,Safe option,Safe option,Safe option,Safe option,Safe option,Safe option
yedk7nh8,b5ht5wb0,6352fb64b16cb5ae7fa86ae7,12,3,lottery_8,hi,Plum,Banana,1,Safe option,8,-552,7,-661,2,-625,3,-606,0,0,0,0,,,,,,,,,2026-02-14 09:56:15.081255,1771308000.0,"Tuesday, 17 February at 06:00",1771567200.0,"Friday, 20 February at 06:00",+£22,0.4,0.4,-£34,1,0.4,-£33,0.4,0.16,-£33,-6,Risky option,Risky option,Risky option,Risky option,Risky option,Risky option,Risky option,Safe option,Safe option,Safe option,Safe option,Safe option,Safe option,Safe option,Safe option,Safe option,Safe option,Safe option,Safe option,Safe option
